delay,freq,condition,trials.thisRepN,trials.thisTrialN,trials.thisN,trials.thisIndex,fixation.started,fixation.stopped,polygon.started,polygon.stopped,key_resp.keys,key_resp.rt,key_resp.started,key_resp.stopped,sound_1.started,sound_1.stopped,text.started,text.stopped,textbox.text,textbox.started,textbox.stopped,button.started,button.stopped,button.numClicks,button.timesOn,button.timesOff,participant,session,date,expName,psychopyVersion,frameRate,
0.1,1000,exp,0,0,0,3,12.92251030006446,13.934067799942568,13.900963200023398,None,space,0.8105391999706626,13.900963200023398,None,14.81635473011993,None,15.152969500049949,None,100,15.152969500049949,None,15.152969500049949,None,1,[3.059096399927512],[3.0591049999929965],035672,001,2023-10-27_11h38.35.520,Intentional Binding Task,2022.1.4,59.996136331151284,
0.7,1000,exp,0,1,1,11,18.196779399877414,19.195803799899295,19.179293500026688,None,space,1.4666381001006812,19.179293500026688,None,21.360777330072597,None,21.67905170004815,None,400,21.67905170004815,None,21.67905170004815,None,2,"[3.059096399927512, 3.140477899927646]","[3.0591049999929965, 3.1404864999931306]",035672,001,2023-10-27_11h38.35.520,Intentional Binding Task,2022.1.4,59.996136331151284,
0.1,1000,exp,0,2,2,6,24.823870700085536,25.822930099908262,25.806413100101054,None,space,0.6928489999845624,25.806413100101054,None,26.605419930024073,None,26.944093300029635,None,100,26.944093300029635,None,26.944093300029635,None,3,"[3.059096399927512, 3.140477899927646, 3.186534399865195]","[3.0591049999929965, 3.1404864999931306, 3.186542100040242]",035672,001,2023-10-27_11h38.35.520,Intentional Binding Task,2022.1.4,59.996136331151284,
0.1,1000,exp,0,3,3,9,30.135567100020126,31.13467269996181,31.11825709999539,None,space,0.4462743999902159,31.11825709999539,None,31.66724143009633,None,31.969903799938038,None,100,31.969903799938038,None,31.969903799938038,None,4,"[3.059096399927512, 3.140477899927646, 3.186534399865195, 2.690847200108692]","[3.0591049999929965, 3.1404864999931306, 3.186542100040242, 2.6908551999367774]",035672,001,2023-10-27_11h38.35.520,Intentional Binding Task,2022.1.4,59.996136331151284,
0.7,1000,exp,0,4,4,8,34.66465079993941,35.6640810999088,35.647140299901366,None,space,0.5501959999091923,35.647140299901366,None,36.895893529942256,None,37.20777019998059,None,700,37.20777019998059,None,37.20777019998059,None,5,"[3.059096399927512, 3.140477899927646, 3.186534399865195, 2.690847200108692, 2.348012699978426]","[3.0591049999929965, 3.1404864999931306, 3.186542100040242, 2.6908551999367774, 2.3480215000454336]",035672,001,2023-10-27_11h38.35.520,Intentional Binding Task,2022.1.4,59.996136331151284,
0.4,400,unexp,0,5,5,1,39.56006649998017,40.559349599992856,40.54275869997218,None,space,0.316387000028044,40.54275869997218,None,41.25866543008014,None,41.56118900002912,None,400,41.56118900002912,None,41.56118900002912,None,6,"[3.059096399927512, 3.140477899927646, 3.186534399865195, 2.690847200108692, 2.348012699978426, 3.441637699957937]","[3.0591049999929965, 3.1404864999931306, 3.186542100040242, 2.6908551999367774, 2.3480215000454336, 3.441647599916905]",035672,001,2023-10-27_11h38.35.520,Intentional Binding Task,2022.1.4,59.996136331151284,
0.4,1000,exp,0,6,6,4,45.004993400070816,46.0042039998807,45.98750749998726,None,space,0.738858399912715,45.98750749998726,None,47.1363795299083,None,47.43620719993487,None,100,47.43620719993487,None,47.43620719993487,None,7,"[3.059096399927512, 3.140477899927646, 3.186534399865195, 2.690847200108692, 2.348012699978426, 3.441637699957937, 2.794587800046429]","[3.0591049999929965, 3.1404864999931306, 3.186542100040242, 2.6908551999367774, 2.3480215000454336, 3.441647599916905, 2.794595600105822]",035672,001,2023-10-27_11h38.35.520,Intentional Binding Task,2022.1.4,59.996136331151284,
0.4,1000,exp,0,7,7,10,50.23347819992341,51.23248629993759,51.215993700083345,None,space,0.4821974001824856,51.215993700083345,None,52.09829063010402,None,52.42933800001629,None,400,52.42933800001629,None,52.42933800001629,None,8,"[3.059096399927512, 3.140477899927646, 3.186534399865195, 2.690847200108692, 2.348012699978426, 3.441637699957937, 2.794587800046429, 1.863550700014457]","[3.0591049999929965, 3.1404864999931306, 3.186542100040242, 2.6908551999367774, 2.3480215000454336, 3.441647599916905, 2.794595600105822, 1.8635587999597192]",035672,001,2023-10-27_11h38.35.520,Intentional Binding Task,2022.1.4,59.996136331151284,
0.4,1000,exp,0,8,8,7,54.29630999988876,55.29540920001455,55.27884660009295,None,space,0.41884750011377037,55.27884660009295,None,56.111224830104035,None,56.4193637999706,None,400 ,56.4193637999706,None,56.4193637999706,None,9,"[3.059096399927512, 3.140477899927646, 3.186534399865195, 2.690847200108692, 2.348012699978426, 3.441637699957937, 2.794587800046429, 1.863550700014457, 5.132225199835375]","[3.0591049999929965, 3.1404864999931306, 3.186542100040242, 2.6908551999367774, 2.3480215000454336, 3.441647599916905, 2.794595600105822, 1.8635587999597192, 5.132231799885631]",035672,001,2023-10-27_11h38.35.520,Intentional Binding Task,2022.1.4,59.996136331151284,
0.1,400,unexp,0,9,9,0,61.55623449990526,62.55526149994694,62.53882459993474,None,space,0.6192516000010073,62.53882459993474,None,63.270968429930505,None,63.57509110006504,None,700,63.57509110006504,None,63.57509110006504,None,10,"[3.059096399927512, 3.140477899927646, 3.186534399865195, 2.690847200108692, 2.348012699978426, 3.441637699957937, 2.794587800046429, 1.863550700014457, 5.132225199835375, 2.9737808001227677]","[3.0591049999929965, 3.1404864999931306, 3.186542100040242, 2.6908551999367774, 2.3480215000454336, 3.441647599916905, 2.794595600105822, 1.8635587999597192, 5.132231799885631, 2.9737895999569446]",035672,001,2023-10-27_11h38.35.520,Intentional Binding Task,2022.1.4,59.996136331151284,
0.7,1000,exp,0,10,10,5,66.5515048999805,67.55062039988115,67.53402159991674,None,space,0.6109036998823285,67.53402159991674,None,68.84909593006596,None,69.14777899999171,None,700,69.14777899999171,None,69.14777899999171,None,11,"[3.059096399927512, 3.140477899927646, 3.186534399865195, 2.690847200108692, 2.348012699978426, 3.441637699957937, 2.794587800046429, 1.863550700014457, 5.132225199835375, 2.9737808001227677, 2.561872099991888]","[3.0591049999929965, 3.1404864999931306, 3.186542100040242, 2.6908551999367774, 2.3480215000454336, 3.441647599916905, 2.794595600105822, 1.8635587999597192, 5.132231799885631, 2.9737895999569446, 2.5618789999280125]",035672,001,2023-10-27_11h38.35.520,Intentional Binding Task,2022.1.4,59.996136331151284,
0.7,400,unexp,0,11,11,2,71.71343640005216,72.71256150002591,72.69585520005785,None,space,0.8819947999436408,72.69585520005785,None,74.27767603001557,None,74.58941200003028,None,400,74.58941200003028,None,74.58941200003028,None,12,"[3.059096399927512, 3.140477899927646, 3.186534399865195, 2.690847200108692, 2.348012699978426, 3.441637699957937, 2.794587800046429, 1.863550700014457, 5.132225199835375, 2.9737808001227677, 2.561872099991888, 2.5665995001327246]","[3.0591049999929965, 3.1404864999931306, 3.186542100040242, 2.6908551999367774, 2.3480215000454336, 3.441647599916905, 2.794595600105822, 1.8635587999597192, 5.132231799885631, 2.9737895999569446, 2.5618789999280125, 2.566607099957764]",035672,001,2023-10-27_11h38.35.520,Intentional Binding Task,2022.1.4,59.996136331151284,
0.4,1000,exp,1,0,12,10,77.15859919996001,78.17414360004477,78.14083759998903,None,space,0.6319828000850976,78.14083759998903,None,79.17321022991091,None,79.50371329998598,None,100,79.50371329998598,None,79.50371329998598,None,13,"[3.059096399927512, 3.140477899927646, 3.186534399865195, 2.690847200108692, 2.348012699978426, 3.441637699957937, 2.794587800046429, 1.863550700014457, 5.132225199835375, 2.9737808001227677, 2.561872099991888, 2.5665995001327246, 2.1802060999907553]","[3.0591049999929965, 3.1404864999931306, 3.186542100040242, 2.6908551999367774, 2.3480215000454336, 3.441647599916905, 2.794595600105822, 1.8635587999597192, 5.132231799885631, 2.9737895999569446, 2.5618789999280125, 2.566607099957764, 2.1802141999360174]",035672,001,2023-10-27_11h38.35.520,Intentional Binding Task,2022.1.4,59.996136331151284,
0.4,1000,exp,1,1,13,4,81.68737889989279,82.68656229996122,82.66986660007387,None,space,0.589418200077489,82.66986660007387,None,83.66863273009658,None,83.93137370003387,None,100,83.93137370003387,None,83.93137370003387,None,14,"[3.059096399927512, 3.140477899927646, 3.186534399865195, 2.690847200108692, 2.348012699978426, 3.441637699957937, 2.794587800046429, 1.863550700014457, 5.132225199835375, 2.9737808001227677, 2.561872099991888, 2.5665995001327246, 2.1802060999907553, 2.6793126000557095]","[3.0591049999929965, 3.1404864999931306, 3.186542100040242, 2.6908551999367774, 2.3480215000454336, 3.441647599916905, 2.794595600105822, 1.8635587999597192, 5.132231799885631, 2.9737895999569446, 2.5618789999280125, 2.566607099957764, 2.1802141999360174, 2.6793192999903113]",035672,001,2023-10-27_11h38.35.520,Intentional Binding Task,2022.1.4,59.996136331151284,
0.1,1000,exp,1,2,14,6,86.61613769992255,87.61524219997227,87.59868400008418,None,space,0.4676240000408143,87.59868400008418,None,88.18103893003426,None,88.49431030009873,None,100,88.49431030009873,None,88.49431030009873,None,15,"[3.059096399927512, 3.140477899927646, 3.186534399865195, 2.690847200108692, 2.348012699978426, 3.441637699957937, 2.794587800046429, 1.863550700014457, 5.132225199835375, 2.9737808001227677, 2.561872099991888, 2.5665995001327246, 2.1802060999907553, 2.6793126000557095, 2.2973766999784857]","[3.0591049999929965, 3.1404864999931306, 3.186542100040242, 2.6908551999367774, 2.3480215000454336, 3.441647599916905, 2.794595600105822, 1.8635587999597192, 5.132231799885631, 2.9737895999569446, 2.5618789999280125, 2.566607099957764, 2.1802141999360174, 2.6793192999903113, 2.29738079989329]",035672,001,2023-10-27_11h38.35.520,Intentional Binding Task,2022.1.4,59.996136331151284,
0.7,400,unexp,1,3,15,2,90.79570219991729,91.81125200004317,91.77803439996205,None,space,0.7065926999785006,91.77803439996205,None,93.19330182992853,None,93.49552130000666,None,400,93.49552130000666,None,93.49552130000666,None,16,"[3.059096399927512, 3.140477899927646, 3.186534399865195, 2.690847200108692, 2.348012699978426, 3.441637699957937, 2.794587800046429, 1.863550700014457, 5.132225199835375, 2.9737808001227677, 2.561872099991888, 2.5665995001327246, 2.1802060999907553, 2.6793126000557095, 2.2973766999784857, 2.0087262000888586]","[3.0591049999929965, 3.1404864999931306, 3.186542100040242, 2.6908551999367774, 2.3480215000454336, 3.441647599916905, 2.794595600105822, 1.8635587999597192, 5.132231799885631, 2.9737895999569446, 2.5618789999280125, 2.566607099957764, 2.1802141999360174, 2.6793192999903113, 2.29738079989329, 2.0087345000356436]",035672,001,2023-10-27_11h38.35.520,Intentional Binding Task,2022.1.4,59.996136331151284,
0.4,400,unexp,1,4,16,1,95.50783980009146,96.50679480005056,96.49034889996983,None,space,0.37990429997444153,96.49034889996983,None,97.27296772990375,None,97.58956109988503,None,400,97.58956109988503,None,97.58956109988503,None,17,"[3.059096399927512, 3.140477899927646, 3.186534399865195, 2.690847200108692, 2.348012699978426, 3.441637699957937, 2.794587800046429, 1.863550700014457, 5.132225199835375, 2.9737808001227677, 2.561872099991888, 2.5665995001327246, 2.1802060999907553, 2.6793126000557095, 2.2973766999784857, 2.0087262000888586, 2.5118650998920202]","[3.0591049999929965, 3.1404864999931306, 3.186542100040242, 2.6908551999367774, 2.3480215000454336, 3.441647599916905, 2.794595600105822, 1.8635587999597192, 5.132231799885631, 2.9737895999569446, 2.5618789999280125, 2.566607099957764, 2.1802141999360174, 2.6793192999903113, 2.29738079989329, 2.0087345000356436, 2.5118745998479426]",035672,001,2023-10-27_11h38.35.520,Intentional Binding Task,2022.1.4,59.996136331151284,
0.1,1000,exp,1,5,17,9,100.10356529988348,101.10251279990189,101.08603210002184,None,space,0.5698422999121249,101.08603210002184,None,101.76846613008529,None,102.07521190005355,None,400,102.07521190005355,None,102.07521190005355,None,18,"[3.059096399927512, 3.140477899927646, 3.186534399865195, 2.690847200108692, 2.348012699978426, 3.441637699957937, 2.794587800046429, 1.863550700014457, 5.132225199835375, 2.9737808001227677, 2.561872099991888, 2.5665995001327246, 2.1802060999907553, 2.6793126000557095, 2.2973766999784857, 2.0087262000888586, 2.5118650998920202, 3.2381932998541743]","[3.0591049999929965, 3.1404864999931306, 3.186542100040242, 2.6908551999367774, 2.3480215000454336, 3.441647599916905, 2.794595600105822, 1.8635587999597192, 5.132231799885631, 2.9737895999569446, 2.5618789999280125, 2.566607099957764, 2.1802141999360174, 2.6793192999903113, 2.29738079989329, 2.0087345000356436, 2.5118745998479426, 3.2382010999135673]",035672,001,2023-10-27_11h38.35.520,Intentional Binding Task,2022.1.4,59.996136331151284,
0.1,1000,exp,1,6,18,3,105.31544809998013,106.33117390004918,106.29774160007946,None,space,0.36273760022595525,106.29774160007946,None,106.76375242993235,None,107.04705730010755,None,100,107.04705730010755,None,107.04705730010755,None,19,"[3.059096399927512, 3.140477899927646, 3.186534399865195, 2.690847200108692, 2.348012699978426, 3.441637699957937, 2.794587800046429, 1.863550700014457, 5.132225199835375, 2.9737808001227677, 2.561872099991888, 2.5665995001327246, 2.1802060999907553, 2.6793126000557095, 2.2973766999784857, 2.0087262000888586, 2.5118650998920202, 3.2381932998541743, 1.8451487999409437]","[3.0591049999929965, 3.1404864999931306, 3.186542100040242, 2.6908551999367774, 2.3480215000454336, 3.441647599916905, 2.794595600105822, 1.8635587999597192, 5.132231799885631, 2.9737895999569446, 2.5618789999280125, 2.566607099957764, 2.1802141999360174, 2.6793192999903113, 2.29738079989329, 2.0087345000356436, 2.5118745998479426, 3.2382010999135673, 1.8451555001083761]",035672,001,2023-10-27_11h38.35.520,Intentional Binding Task,2022.1.4,59.996136331151284,
0.1,400,unexp,1,7,19,0,108.89521620003507,109.89429689990357,109.87772229989059,None,space,0.25565459998324513,109.87772229989059,None,110.24375033001415,None,110.57828220003285,None,100,110.57828220003285,None,110.57828220003285,None,20,"[3.059096399927512, 3.140477899927646, 3.186534399865195, 2.690847200108692, 2.348012699978426, 3.441637699957937, 2.794587800046429, 1.863550700014457, 5.132225199835375, 2.9737808001227677, 2.561872099991888, 2.5665995001327246, 2.1802060999907553, 2.6793126000557095, 2.2973766999784857, 2.0087262000888586, 2.5118650998920202, 3.2381932998541743, 1.8451487999409437, 2.07545780017972]","[3.0591049999929965, 3.1404864999931306, 3.186542100040242, 2.6908551999367774, 2.3480215000454336, 3.441647599916905, 2.794595600105822, 1.8635587999597192, 5.132231799885631, 2.9737895999569446, 2.5618789999280125, 2.566607099957764, 2.1802141999360174, 2.6793192999903113, 2.29738079989329, 2.0087345000356436, 2.5118745998479426, 3.2382010999135673, 1.8451555001083761, 2.0754669001325965]",035672,001,2023-10-27_11h38.35.520,Intentional Binding Task,2022.1.4,59.996136331151284,
0.7,1000,exp,1,8,20,5,112.65844219992869,113.67411889997311,113.64080630009994,None,space,0.31599170016124845,113.64080630009994,None,114.65641503008082,None,114.96036450006068,None,700,114.96036450006068,None,114.96036450006068,None,21,"[3.059096399927512, 3.140477899927646, 3.186534399865195, 2.690847200108692, 2.348012699978426, 3.441637699957937, 2.794587800046429, 1.863550700014457, 5.132225199835375, 2.9737808001227677, 2.561872099991888, 2.5665995001327246, 2.1802060999907553, 2.6793126000557095, 2.2973766999784857, 2.0087262000888586, 2.5118650998920202, 3.2381932998541743, 1.8451487999409437, 2.07545780017972, 2.2891124999150634]","[3.0591049999929965, 3.1404864999931306, 3.186542100040242, 2.6908551999367774, 2.3480215000454336, 3.441647599916905, 2.794595600105822, 1.8635587999597192, 5.132231799885631, 2.9737895999569446, 2.5618789999280125, 2.566607099957764, 2.1802141999360174, 2.6793192999903113, 2.29738079989329, 2.0087345000356436, 2.5118745998479426, 3.2382010999135673, 1.8451555001083761, 2.0754669001325965, 2.289120400091633]",035672,001,2023-10-27_11h38.35.520,Intentional Binding Task,2022.1.4,59.996136331151284,
0.4,1000,exp,1,9,21,7,117.25416660006158,118.26978649990633,118.23649229994044,None,space,1.1694330999162048,118.23649229994044,None,119.81816792995669,None,120.12275189999491,None,400,120.12275189999491,None,120.12275189999491,None,22,"[3.059096399927512, 3.140477899927646, 3.186534399865195, 2.690847200108692, 2.348012699978426, 3.441637699957937, 2.794587800046429, 1.863550700014457, 5.132225199835375, 2.9737808001227677, 2.561872099991888, 2.5665995001327246, 2.1802060999907553, 2.6793126000557095, 2.2973766999784857, 2.0087262000888586, 2.5118650998920202, 3.2381932998541743, 1.8451487999409437, 2.07545780017972, 2.2891124999150634, 1.7074915000703186]","[3.0591049999929965, 3.1404864999931306, 3.186542100040242, 2.6908551999367774, 2.3480215000454336, 3.441647599916905, 2.794595600105822, 1.8635587999597192, 5.132231799885631, 2.9737895999569446, 2.5618789999280125, 2.566607099957764, 2.1802141999360174, 2.6793192999903113, 2.29738079989329, 2.0087345000356436, 2.5118745998479426, 3.2382010999135673, 1.8451555001083761, 2.0754669001325965, 2.289120400091633, 1.7074963999912143]",035672,001,2023-10-27_11h38.35.520,Intentional Binding Task,2022.1.4,59.996136331151284,
0.7,1000,exp,1,10,22,8,121.8331764000468,122.83226759987883,122.81570310005918,None,space,0.26539689977653325,122.81570310005918,None,123.7814567300491,None,124.08879119995981,None,100,124.08879119995981,None,124.08879119995981,None,23,"[3.059096399927512, 3.140477899927646, 3.186534399865195, 2.690847200108692, 2.348012699978426, 3.441637699957937, 2.794587800046429, 1.863550700014457, 5.132225199835375, 2.9737808001227677, 2.561872099991888, 2.5665995001327246, 2.1802060999907553, 2.6793126000557095, 2.2973766999784857, 2.0087262000888586, 2.5118650998920202, 3.2381932998541743, 1.8451487999409437, 2.07545780017972, 2.2891124999150634, 1.7074915000703186, 2.0216967000160366]","[3.0591049999929965, 3.1404864999931306, 3.186542100040242, 2.6908551999367774, 2.3480215000454336, 3.441647599916905, 2.794595600105822, 1.8635587999597192, 5.132231799885631, 2.9737895999569446, 2.5618789999280125, 2.566607099957764, 2.1802141999360174, 2.6793192999903113, 2.29738079989329, 2.0087345000356436, 2.5118745998479426, 3.2382010999135673, 1.8451555001083761, 2.0754669001325965, 2.289120400091633, 1.7074963999912143, 2.021704899845645]",035672,001,2023-10-27_11h38.35.520,Intentional Binding Task,2022.1.4,59.996136331151284,
0.7,1000,exp,1,11,23,11,126.1126105999574,127.12812549993396,127.09495100006461,None,space,0.7162899998947978,127.09495100006461,None,128.5101146299392,None,128.75566549994983,None,400,128.75566549994983,None,128.75566549994983,None,24,"[3.059096399927512, 3.140477899927646, 3.186534399865195, 2.690847200108692, 2.348012699978426, 3.441637699957937, 2.794587800046429, 1.863550700014457, 5.132225199835375, 2.9737808001227677, 2.561872099991888, 2.5665995001327246, 2.1802060999907553, 2.6793126000557095, 2.2973766999784857, 2.0087262000888586, 2.5118650998920202, 3.2381932998541743, 1.8451487999409437, 2.07545780017972, 2.2891124999150634, 1.7074915000703186, 2.0216967000160366, 1.7169932001270354]","[3.0591049999929965, 3.1404864999931306, 3.186542100040242, 2.6908551999367774, 2.3480215000454336, 3.441647599916905, 2.794595600105822, 1.8635587999597192, 5.132231799885631, 2.9737895999569446, 2.5618789999280125, 2.566607099957764, 2.1802141999360174, 2.6793192999903113, 2.29738079989329, 2.0087345000356436, 2.5118745998479426, 3.2382010999135673, 1.8451555001083761, 2.0754669001325965, 2.289120400091633, 1.7074963999912143, 2.021704899845645, 1.7170013000722975]",035672,001,2023-10-27_11h38.35.520,Intentional Binding Task,2022.1.4,59.996136331151284,
0.1,1000,exp,2,0,24,3,130.47506650001742,131.4741454999894,131.45754719991237,None,space,0.2479861997999251,131.45754719991237,None,131.80702213007027,None,132.1127696998883,None,100,132.1127696998883,None,132.1127696998883,None,25,"[3.059096399927512, 3.140477899927646, 3.186534399865195, 2.690847200108692, 2.348012699978426, 3.441637699957937, 2.794587800046429, 1.863550700014457, 5.132225199835375, 2.9737808001227677, 2.561872099991888, 2.5665995001327246, 2.1802060999907553, 2.6793126000557095, 2.2973766999784857, 2.0087262000888586, 2.5118650998920202, 3.2381932998541743, 1.8451487999409437, 2.07545780017972, 2.2891124999150634, 1.7074915000703186, 2.0216967000160366, 1.7169932001270354, 1.8571113999933004]","[3.0591049999929965, 3.1404864999931306, 3.186542100040242, 2.6908551999367774, 2.3480215000454336, 3.441647599916905, 2.794595600105822, 1.8635587999597192, 5.132231799885631, 2.9737895999569446, 2.5618789999280125, 2.566607099957764, 2.1802141999360174, 2.6793192999903113, 2.29738079989329, 2.0087345000356436, 2.5118745998479426, 3.2382010999135673, 1.8451555001083761, 2.0754669001325965, 2.289120400091633, 1.7074963999912143, 2.021704899845645, 1.7170013000722975, 1.8571223001927137]",035672,001,2023-10-27_11h38.35.520,Intentional Binding Task,2022.1.4,59.996136331151284,
0.7,1000,exp,2,1,25,8,133.97196709993295,134.9710198000539,134.95462190010585,None,space,0.5513458999339491,134.95462190010585,None,136.2194566300139,None,136.52336840005592,None,400,136.52336840005592,None,136.52336840005592,None,26,"[3.059096399927512, 3.140477899927646, 3.186534399865195, 2.690847200108692, 2.348012699978426, 3.441637699957937, 2.794587800046429, 1.863550700014457, 5.132225199835375, 2.9737808001227677, 2.561872099991888, 2.5665995001327246, 2.1802060999907553, 2.6793126000557095, 2.2973766999784857, 2.0087262000888586, 2.5118650998920202, 3.2381932998541743, 1.8451487999409437, 2.07545780017972, 2.2891124999150634, 1.7074915000703186, 2.0216967000160366, 1.7169932001270354, 1.8571113999933004, 1.6405806001275778]","[3.0591049999929965, 3.1404864999931306, 3.186542100040242, 2.6908551999367774, 2.3480215000454336, 3.441647599916905, 2.794595600105822, 1.8635587999597192, 5.132231799885631, 2.9737895999569446, 2.5618789999280125, 2.566607099957764, 2.1802141999360174, 2.6793192999903113, 2.29738079989329, 2.0087345000356436, 2.5118745998479426, 3.2382010999135673, 1.8451555001083761, 2.0754669001325965, 2.289120400091633, 1.7074963999912143, 2.021704899845645, 1.7170013000722975, 1.8571223001927137, 1.6405888001900166]",035672,001,2023-10-27_11h38.35.520,Intentional Binding Task,2022.1.4,59.996136331151284,
0.7,1000,exp,2,2,26,11,138.16808980004862,139.18364689988084,139.1503504998982,None,space,0.6438692000228912,139.1503504998982,None,140.49897143007257,None,140.75716249994002,None,400,140.75716249994002,None,140.75716249994002,None,27,"[3.059096399927512, 3.140477899927646, 3.186534399865195, 2.690847200108692, 2.348012699978426, 3.441637699957937, 2.794587800046429, 1.863550700014457, 5.132225199835375, 2.9737808001227677, 2.561872099991888, 2.5665995001327246, 2.1802060999907553, 2.6793126000557095, 2.2973766999784857, 2.0087262000888586, 2.5118650998920202, 3.2381932998541743, 1.8451487999409437, 2.07545780017972, 2.2891124999150634, 1.7074915000703186, 2.0216967000160366, 1.7169932001270354, 1.8571113999933004, 1.6405806001275778, 3.3344433000311255]","[3.0591049999929965, 3.1404864999931306, 3.186542100040242, 2.6908551999367774, 2.3480215000454336, 3.441647599916905, 2.794595600105822, 1.8635587999597192, 5.132231799885631, 2.9737895999569446, 2.5618789999280125, 2.566607099957764, 2.1802141999360174, 2.6793192999903113, 2.29738079989329, 2.0087345000356436, 2.5118745998479426, 3.2382010999135673, 1.8451555001083761, 2.0754669001325965, 2.289120400091633, 1.7074963999912143, 2.021704899845645, 1.7170013000722975, 1.8571223001927137, 1.6405888001900166, 3.334452000213787]",035672,001,2023-10-27_11h38.35.520,Intentional Binding Task,2022.1.4,59.996136331151284,
0.1,1000,exp,2,3,27,9,144.09593429998495,145.11131529998966,145.07820670004003,None,space,0.04389059985987842,145.07820670004003,None,145.22802192992532,None,145.5417261000257,None,100,145.5417261000257,None,145.5417261000257,None,28,"[3.059096399927512, 3.140477899927646, 3.186534399865195, 2.690847200108692, 2.348012699978426, 3.441637699957937, 2.794587800046429, 1.863550700014457, 5.132225199835375, 2.9737808001227677, 2.561872099991888, 2.5665995001327246, 2.1802060999907553, 2.6793126000557095, 2.2973766999784857, 2.0087262000888586, 2.5118650998920202, 3.2381932998541743, 1.8451487999409437, 2.07545780017972, 2.2891124999150634, 1.7074915000703186, 2.0216967000160366, 1.7169932001270354, 1.8571113999933004, 1.6405806001275778, 3.3344433000311255, 1.9801331998314708]","[3.0591049999929965, 3.1404864999931306, 3.186542100040242, 2.6908551999367774, 2.3480215000454336, 3.441647599916905, 2.794595600105822, 1.8635587999597192, 5.132231799885631, 2.9737895999569446, 2.5618789999280125, 2.566607099957764, 2.1802141999360174, 2.6793192999903113, 2.29738079989329, 2.0087345000356436, 2.5118745998479426, 3.2382010999135673, 1.8451555001083761, 2.0754669001325965, 2.289120400091633, 1.7074963999912143, 2.021704899845645, 1.7170013000722975, 1.8571223001927137, 1.6405888001900166, 3.334452000213787, 1.9801407000049949]",035672,001,2023-10-27_11h38.35.520,Intentional Binding Task,2022.1.4,59.996136331151284,
0.7,400,unexp,2,4,28,2,147.52583929989487,148.52487719990313,148.50845770002343,None,space,0.29874260001815856,148.50845770002343,None,149.50740692992696,None,149.79654560005292,None,700,149.79654560005292,None,149.79654560005292,None,29,"[3.059096399927512, 3.140477899927646, 3.186534399865195, 2.690847200108692, 2.348012699978426, 3.441637699957937, 2.794587800046429, 1.863550700014457, 5.132225199835375, 2.9737808001227677, 2.561872099991888, 2.5665995001327246, 2.1802060999907553, 2.6793126000557095, 2.2973766999784857, 2.0087262000888586, 2.5118650998920202, 3.2381932998541743, 1.8451487999409437, 2.07545780017972, 2.2891124999150634, 1.7074915000703186, 2.0216967000160366, 1.7169932001270354, 1.8571113999933004, 1.6405806001275778, 3.3344433000311255, 1.9801331998314708, 1.5376269000116736]","[3.0591049999929965, 3.1404864999931306, 3.186542100040242, 2.6908551999367774, 2.3480215000454336, 3.441647599916905, 2.794595600105822, 1.8635587999597192, 5.132231799885631, 2.9737895999569446, 2.5618789999280125, 2.566607099957764, 2.1802141999360174, 2.6793192999903113, 2.29738079989329, 2.0087345000356436, 2.5118745998479426, 3.2382010999135673, 1.8451555001083761, 2.0754669001325965, 2.289120400091633, 1.7074963999912143, 2.021704899845645, 1.7170013000722975, 1.8571223001927137, 1.6405888001900166, 3.334452000213787, 1.9801407000049949, 1.5376337999477983]",035672,001,2023-10-27_11h38.35.520,Intentional Binding Task,2022.1.4,59.996136331151284,
0.4,1000,exp,2,5,29,10,151.33888900000602,152.33802219992504,152.32141579990275,None,space,0.4898363999091089,152.32141579990275,None,153.22042393004523,None,153.56708150007762,None,400,153.56708150007762,None,153.56708150007762,None,30,"[3.059096399927512, 3.140477899927646, 3.186534399865195, 2.690847200108692, 2.348012699978426, 3.441637699957937, 2.794587800046429, 1.863550700014457, 5.132225199835375, 2.9737808001227677, 2.561872099991888, 2.5665995001327246, 2.1802060999907553, 2.6793126000557095, 2.2973766999784857, 2.0087262000888586, 2.5118650998920202, 3.2381932998541743, 1.8451487999409437, 2.07545780017972, 2.2891124999150634, 1.7074915000703186, 2.0216967000160366, 1.7169932001270354, 1.8571113999933004, 1.6405806001275778, 3.3344433000311255, 1.9801331998314708, 1.5376269000116736, 1.647773299831897]","[3.0591049999929965, 3.1404864999931306, 3.186542100040242, 2.6908551999367774, 2.3480215000454336, 3.441647599916905, 2.794595600105822, 1.8635587999597192, 5.132231799885631, 2.9737895999569446, 2.5618789999280125, 2.566607099957764, 2.1802141999360174, 2.6793192999903113, 2.29738079989329, 2.0087345000356436, 2.5118745998479426, 3.2382010999135673, 1.8451555001083761, 2.0754669001325965, 2.289120400091633, 1.7074963999912143, 2.021704899845645, 1.7170013000722975, 1.8571223001927137, 1.6405888001900166, 3.334452000213787, 1.9801407000049949, 1.5376337999477983, 1.6477794998791069]",035672,001,2023-10-27_11h38.35.520,Intentional Binding Task,2022.1.4,59.996136331151284,
0.4,1000,exp,2,6,30,7,155.2186878998764,156.21767690009438,156.2011172999628,None,space,0.1449852001387626,156.2011172999628,None,156.75031943009236,None,157.05825440003537,None,400,157.05825440003537,None,157.05825440003537,None,31,"[3.059096399927512, 3.140477899927646, 3.186534399865195, 2.690847200108692, 2.348012699978426, 3.441637699957937, 2.794587800046429, 1.863550700014457, 5.132225199835375, 2.9737808001227677, 2.561872099991888, 2.5665995001327246, 2.1802060999907553, 2.6793126000557095, 2.2973766999784857, 2.0087262000888586, 2.5118650998920202, 3.2381932998541743, 1.8451487999409437, 2.07545780017972, 2.2891124999150634, 1.7074915000703186, 2.0216967000160366, 1.7169932001270354, 1.8571113999933004, 1.6405806001275778, 3.3344433000311255, 1.9801331998314708, 1.5376269000116736, 1.647773299831897, 2.070005400106311]","[3.0591049999929965, 3.1404864999931306, 3.186542100040242, 2.6908551999367774, 2.3480215000454336, 3.441647599916905, 2.794595600105822, 1.8635587999597192, 5.132231799885631, 2.9737895999569446, 2.5618789999280125, 2.566607099957764, 2.1802141999360174, 2.6793192999903113, 2.29738079989329, 2.0087345000356436, 2.5118745998479426, 3.2382010999135673, 1.8451555001083761, 2.0754669001325965, 2.289120400091633, 1.7074963999912143, 2.021704899845645, 1.7170013000722975, 1.8571223001927137, 1.6405888001900166, 3.334452000213787, 1.9801407000049949, 1.5376337999477983, 1.6477794998791069, 2.070011999923736]",035672,001,2023-10-27_11h38.35.520,Intentional Binding Task,2022.1.4,59.996136331151284,
0.1,1000,exp,2,7,31,6,159.1317326000426,160.1307234999258,160.1141131001059,None,space,0.09645010018721223,160.1141131001059,None,160.31395733002574,None,160.67095920001157,None,100,160.67095920001157,None,160.67095920001157,None,32,"[3.059096399927512, 3.140477899927646, 3.186534399865195, 2.690847200108692, 2.348012699978426, 3.441637699957937, 2.794587800046429, 1.863550700014457, 5.132225199835375, 2.9737808001227677, 2.561872099991888, 2.5665995001327246, 2.1802060999907553, 2.6793126000557095, 2.2973766999784857, 2.0087262000888586, 2.5118650998920202, 3.2381932998541743, 1.8451487999409437, 2.07545780017972, 2.2891124999150634, 1.7074915000703186, 2.0216967000160366, 1.7169932001270354, 1.8571113999933004, 1.6405806001275778, 3.3344433000311255, 1.9801331998314708, 1.5376269000116736, 1.647773299831897, 2.070005400106311, 1.5199335999786854]","[3.0591049999929965, 3.1404864999931306, 3.186542100040242, 2.6908551999367774, 2.3480215000454336, 3.441647599916905, 2.794595600105822, 1.8635587999597192, 5.132231799885631, 2.9737895999569446, 2.5618789999280125, 2.566607099957764, 2.1802141999360174, 2.6793192999903113, 2.29738079989329, 2.0087345000356436, 2.5118745998479426, 3.2382010999135673, 1.8451555001083761, 2.0754669001325965, 2.289120400091633, 1.7074963999912143, 2.021704899845645, 1.7170013000722975, 1.8571223001927137, 1.6405888001900166, 3.334452000213787, 1.9801407000049949, 1.5376337999477983, 1.6477794998791069, 2.070011999923736, 1.519944699946791]",035672,001,2023-10-27_11h38.35.520,Intentional Binding Task,2022.1.4,59.996136331151284,
0.4,1000,exp,2,8,32,4,162.1955397001002,163.1946244998835,163.1781208999455,None,space,0.8514345001894981,163.1781208999455,None,164.44312093006448,None,164.74834499997087,None,700,164.74834499997087,None,164.74834499997087,None,33,"[3.059096399927512, 3.140477899927646, 3.186534399865195, 2.690847200108692, 2.348012699978426, 3.441637699957937, 2.794587800046429, 1.863550700014457, 5.132225199835375, 2.9737808001227677, 2.561872099991888, 2.5665995001327246, 2.1802060999907553, 2.6793126000557095, 2.2973766999784857, 2.0087262000888586, 2.5118650998920202, 3.2381932998541743, 1.8451487999409437, 2.07545780017972, 2.2891124999150634, 1.7074915000703186, 2.0216967000160366, 1.7169932001270354, 1.8571113999933004, 1.6405806001275778, 3.3344433000311255, 1.9801331998314708, 1.5376269000116736, 1.647773299831897, 2.070005400106311, 1.5199335999786854, 1.3893081001006067]","[3.0591049999929965, 3.1404864999931306, 3.186542100040242, 2.6908551999367774, 2.3480215000454336, 3.441647599916905, 2.794595600105822, 1.8635587999597192, 5.132231799885631, 2.9737895999569446, 2.5618789999280125, 2.566607099957764, 2.1802141999360174, 2.6793192999903113, 2.29738079989329, 2.0087345000356436, 2.5118745998479426, 3.2382010999135673, 1.8451555001083761, 2.0754669001325965, 2.289120400091633, 1.7074963999912143, 2.021704899845645, 1.7170013000722975, 1.8571223001927137, 1.6405888001900166, 3.334452000213787, 1.9801407000049949, 1.5376337999477983, 1.6477794998791069, 2.070011999923736, 1.519944699946791, 1.3893156000413]",035672,001,2023-10-27_11h38.35.520,Intentional Binding Task,2022.1.4,59.996136331151284,
0.7,1000,exp,2,9,33,5,166.1418256999459,167.14078400004655,167.12425830005668,None,space,0.6310884000267833,167.12425830005668,None,168.45608113002965,None,168.75243059988134,None,700,168.75243059988134,None,168.75243059988134,None,34,"[3.059096399927512, 3.140477899927646, 3.186534399865195, 2.690847200108692, 2.348012699978426, 3.441637699957937, 2.794587800046429, 1.863550700014457, 5.132225199835375, 2.9737808001227677, 2.561872099991888, 2.5665995001327246, 2.1802060999907553, 2.6793126000557095, 2.2973766999784857, 2.0087262000888586, 2.5118650998920202, 3.2381932998541743, 1.8451487999409437, 2.07545780017972, 2.2891124999150634, 1.7074915000703186, 2.0216967000160366, 1.7169932001270354, 1.8571113999933004, 1.6405806001275778, 3.3344433000311255, 1.9801331998314708, 1.5376269000116736, 1.647773299831897, 2.070005400106311, 1.5199335999786854, 1.3893081001006067, 1.36443360010162]","[3.0591049999929965, 3.1404864999931306, 3.186542100040242, 2.6908551999367774, 2.3480215000454336, 3.441647599916905, 2.794595600105822, 1.8635587999597192, 5.132231799885631, 2.9737895999569446, 2.5618789999280125, 2.566607099957764, 2.1802141999360174, 2.6793192999903113, 2.29738079989329, 2.0087345000356436, 2.5118745998479426, 3.2382010999135673, 1.8451555001083761, 2.0754669001325965, 2.289120400091633, 1.7074963999912143, 2.021704899845645, 1.7170013000722975, 1.8571223001927137, 1.6405888001900166, 3.334452000213787, 1.9801407000049949, 1.5376337999477983, 1.6477794998791069, 2.070011999923736, 1.519944699946791, 1.3893156000413, 1.364441400161013]",035672,001,2023-10-27_11h38.35.520,Intentional Binding Task,2022.1.4,59.996136331151284,
0.1,400,unexp,2,10,34,0,170.121369499946,171.12036659987643,171.10397140006535,None,space,0.1861006999388337,171.10397140006535,None,171.40333493002692,None,171.69798430008814,None,100,171.69798430008814,None,171.69798430008814,None,35,"[3.059096399927512, 3.140477899927646, 3.186534399865195, 2.690847200108692, 2.348012699978426, 3.441637699957937, 2.794587800046429, 1.863550700014457, 5.132225199835375, 2.9737808001227677, 2.561872099991888, 2.5665995001327246, 2.1802060999907553, 2.6793126000557095, 2.2973766999784857, 2.0087262000888586, 2.5118650998920202, 3.2381932998541743, 1.8451487999409437, 2.07545780017972, 2.2891124999150634, 1.7074915000703186, 2.0216967000160366, 1.7169932001270354, 1.8571113999933004, 1.6405806001275778, 3.3344433000311255, 1.9801331998314708, 1.5376269000116736, 1.647773299831897, 2.070005400106311, 1.5199335999786854, 1.3893081001006067, 1.36443360010162, 2.51539249997586]","[3.0591049999929965, 3.1404864999931306, 3.186542100040242, 2.6908551999367774, 2.3480215000454336, 3.441647599916905, 2.794595600105822, 1.8635587999597192, 5.132231799885631, 2.9737895999569446, 2.5618789999280125, 2.566607099957764, 2.1802141999360174, 2.6793192999903113, 2.29738079989329, 2.0087345000356436, 2.5118745998479426, 3.2382010999135673, 1.8451555001083761, 2.0754669001325965, 2.289120400091633, 1.7074963999912143, 2.021704899845645, 1.7170013000722975, 1.8571223001927137, 1.6405888001900166, 3.334452000213787, 1.9801407000049949, 1.5376337999477983, 1.6477794998791069, 2.070011999923736, 1.519944699946791, 1.3893156000413, 1.364441400161013, 2.5154001000337303]",035672,001,2023-10-27_11h38.35.520,Intentional Binding Task,2022.1.4,59.996136331151284,
0.4,400,unexp,2,11,35,1,174.2176173001062,175.23330900003202,175.1999528000597,None,space,0.2740176999941468,175.1999528000597,None,175.88247032994406,None,176.15766900009476,None,100,176.15766900009476,None,176.15766900009476,None,36,"[3.059096399927512, 3.140477899927646, 3.186534399865195, 2.690847200108692, 2.348012699978426, 3.441637699957937, 2.794587800046429, 1.863550700014457, 5.132225199835375, 2.9737808001227677, 2.561872099991888, 2.5665995001327246, 2.1802060999907553, 2.6793126000557095, 2.2973766999784857, 2.0087262000888586, 2.5118650998920202, 3.2381932998541743, 1.8451487999409437, 2.07545780017972, 2.2891124999150634, 1.7074915000703186, 2.0216967000160366, 1.7169932001270354, 1.8571113999933004, 1.6405806001275778, 3.3344433000311255, 1.9801331998314708, 1.5376269000116736, 1.647773299831897, 2.070005400106311, 1.5199335999786854, 1.3893081001006067, 1.36443360010162, 2.51539249997586, 1.7698188999202102]","[3.0591049999929965, 3.1404864999931306, 3.186542100040242, 2.6908551999367774, 2.3480215000454336, 3.441647599916905, 2.794595600105822, 1.8635587999597192, 5.132231799885631, 2.9737895999569446, 2.5618789999280125, 2.566607099957764, 2.1802141999360174, 2.6793192999903113, 2.29738079989329, 2.0087345000356436, 2.5118745998479426, 3.2382010999135673, 1.8451555001083761, 2.0754669001325965, 2.289120400091633, 1.7074963999912143, 2.021704899845645, 1.7170013000722975, 1.8571223001927137, 1.6405888001900166, 3.334452000213787, 1.9801407000049949, 1.5376337999477983, 1.6477794998791069, 2.070011999923736, 1.519944699946791, 1.3893156000413, 1.364441400161013, 2.5154001000337303, 1.7698297000024468]",035672,001,2023-10-27_11h38.35.520,Intentional Binding Task,2022.1.4,59.996136331151284,
0.7,1000,exp,3,0,36,8,177.93078180006705,178.92989800008945,178.91337059997022,None,space,0.4097174999769777,178.91337059997022,None,180.02877563000658,None,180.3385751999449,None,400,180.3385751999449,None,180.3385751999449,None,37,"[3.059096399927512, 3.140477899927646, 3.186534399865195, 2.690847200108692, 2.348012699978426, 3.441637699957937, 2.794587800046429, 1.863550700014457, 5.132225199835375, 2.9737808001227677, 2.561872099991888, 2.5665995001327246, 2.1802060999907553, 2.6793126000557095, 2.2973766999784857, 2.0087262000888586, 2.5118650998920202, 3.2381932998541743, 1.8451487999409437, 2.07545780017972, 2.2891124999150634, 1.7074915000703186, 2.0216967000160366, 1.7169932001270354, 1.8571113999933004, 1.6405806001275778, 3.3344433000311255, 1.9801331998314708, 1.5376269000116736, 1.647773299831897, 2.070005400106311, 1.5199335999786854, 1.3893081001006067, 1.36443360010162, 2.51539249997586, 1.7698188999202102, 1.2684984998777509]","[3.0591049999929965, 3.1404864999931306, 3.186542100040242, 2.6908551999367774, 2.3480215000454336, 3.441647599916905, 2.794595600105822, 1.8635587999597192, 5.132231799885631, 2.9737895999569446, 2.5618789999280125, 2.566607099957764, 2.1802141999360174, 2.6793192999903113, 2.29738079989329, 2.0087345000356436, 2.5118745998479426, 3.2382010999135673, 1.8451555001083761, 2.0754669001325965, 2.289120400091633, 1.7074963999912143, 2.021704899845645, 1.7170013000722975, 1.8571223001927137, 1.6405888001900166, 3.334452000213787, 1.9801407000049949, 1.5376337999477983, 1.6477794998791069, 2.070011999923736, 1.519944699946791, 1.3893156000413, 1.364441400161013, 2.5154001000337303, 1.7698297000024468, 1.2685237999539822]",035672,001,2023-10-27_11h38.35.520,Intentional Binding Task,2022.1.4,59.996136331151284,
0.4,1000,exp,3,1,37,4,181.61061459989287,182.60970950010233,182.59320340002887,None,space,0.356055699987337,182.59320340002887,None,183.35880772997626,None,183.65905179991387,None,400,183.65905179991387,None,183.65905179991387,None,38,"[3.059096399927512, 3.140477899927646, 3.186534399865195, 2.690847200108692, 2.348012699978426, 3.441637699957937, 2.794587800046429, 1.863550700014457, 5.132225199835375, 2.9737808001227677, 2.561872099991888, 2.5665995001327246, 2.1802060999907553, 2.6793126000557095, 2.2973766999784857, 2.0087262000888586, 2.5118650998920202, 3.2381932998541743, 1.8451487999409437, 2.07545780017972, 2.2891124999150634, 1.7074915000703186, 2.0216967000160366, 1.7169932001270354, 1.8571113999933004, 1.6405806001275778, 3.3344433000311255, 1.9801331998314708, 1.5376269000116736, 1.647773299831897, 2.070005400106311, 1.5199335999786854, 1.3893081001006067, 1.36443360010162, 2.51539249997586, 1.7698188999202102, 1.2684984998777509, 1.5461868999991566]","[3.0591049999929965, 3.1404864999931306, 3.186542100040242, 2.6908551999367774, 2.3480215000454336, 3.441647599916905, 2.794595600105822, 1.8635587999597192, 5.132231799885631, 2.9737895999569446, 2.5618789999280125, 2.566607099957764, 2.1802141999360174, 2.6793192999903113, 2.29738079989329, 2.0087345000356436, 2.5118745998479426, 3.2382010999135673, 1.8451555001083761, 2.0754669001325965, 2.289120400091633, 1.7074963999912143, 2.021704899845645, 1.7170013000722975, 1.8571223001927137, 1.6405888001900166, 3.334452000213787, 1.9801407000049949, 1.5376337999477983, 1.6477794998791069, 2.070011999923736, 1.519944699946791, 1.3893156000413, 1.364441400161013, 2.5154001000337303, 1.7698297000024468, 1.2685237999539822, 1.5461949000600725]",035672,001,2023-10-27_11h38.35.520,Intentional Binding Task,2022.1.4,59.996136331151284,
0.7,400,unexp,3,2,38,2,185.20732160005718,186.20645650010556,186.18977489997633,None,space,0.09053489984944463,186.18977489997633,None,186.98890623003246,None,187.29275280004367,None,100,187.29275280004367,None,187.29275280004367,None,39,"[3.059096399927512, 3.140477899927646, 3.186534399865195, 2.690847200108692, 2.348012699978426, 3.441637699957937, 2.794587800046429, 1.863550700014457, 5.132225199835375, 2.9737808001227677, 2.561872099991888, 2.5665995001327246, 2.1802060999907553, 2.6793126000557095, 2.2973766999784857, 2.0087262000888586, 2.5118650998920202, 3.2381932998541743, 1.8451487999409437, 2.07545780017972, 2.2891124999150634, 1.7074915000703186, 2.0216967000160366, 1.7169932001270354, 1.8571113999933004, 1.6405806001275778, 3.3344433000311255, 1.9801331998314708, 1.5376269000116736, 1.647773299831897, 2.070005400106311, 1.5199335999786854, 1.3893081001006067, 1.36443360010162, 2.51539249997586, 1.7698188999202102, 1.2684984998777509, 1.5461868999991566, 1.5403406999539584]","[3.0591049999929965, 3.1404864999931306, 3.186542100040242, 2.6908551999367774, 2.3480215000454336, 3.441647599916905, 2.794595600105822, 1.8635587999597192, 5.132231799885631, 2.9737895999569446, 2.5618789999280125, 2.566607099957764, 2.1802141999360174, 2.6793192999903113, 2.29738079989329, 2.0087345000356436, 2.5118745998479426, 3.2382010999135673, 1.8451555001083761, 2.0754669001325965, 2.289120400091633, 1.7074963999912143, 2.021704899845645, 1.7170013000722975, 1.8571223001927137, 1.6405888001900166, 3.334452000213787, 1.9801407000049949, 1.5376337999477983, 1.6477794998791069, 2.070011999923736, 1.519944699946791, 1.3893156000413, 1.364441400161013, 2.5154001000337303, 1.7698297000024468, 1.2685237999539822, 1.5461949000600725, 1.5403489000163972]",035672,001,2023-10-27_11h38.35.520,Intentional Binding Task,2022.1.4,59.996136331151284,
0.1,1000,exp,3,3,39,3,188.83717589988373,189.83626520005055,189.8197886000853,None,space,0.5489213000983,189.8197886000853,None,190.46875303001144,None,190.79780200007372,None,100,190.79780200007372,None,190.79780200007372,None,40,"[3.059096399927512, 3.140477899927646, 3.186534399865195, 2.690847200108692, 2.348012699978426, 3.441637699957937, 2.794587800046429, 1.863550700014457, 5.132225199835375, 2.9737808001227677, 2.561872099991888, 2.5665995001327246, 2.1802060999907553, 2.6793126000557095, 2.2973766999784857, 2.0087262000888586, 2.5118650998920202, 3.2381932998541743, 1.8451487999409437, 2.07545780017972, 2.2891124999150634, 1.7074915000703186, 2.0216967000160366, 1.7169932001270354, 1.8571113999933004, 1.6405806001275778, 3.3344433000311255, 1.9801331998314708, 1.5376269000116736, 1.647773299831897, 2.070005400106311, 1.5199335999786854, 1.3893081001006067, 1.36443360010162, 2.51539249997586, 1.7698188999202102, 1.2684984998777509, 1.5461868999991566, 1.5403406999539584, 1.714323200052604]","[3.0591049999929965, 3.1404864999931306, 3.186542100040242, 2.6908551999367774, 2.3480215000454336, 3.441647599916905, 2.794595600105822, 1.8635587999597192, 5.132231799885631, 2.9737895999569446, 2.5618789999280125, 2.566607099957764, 2.1802141999360174, 2.6793192999903113, 2.29738079989329, 2.0087345000356436, 2.5118745998479426, 3.2382010999135673, 1.8451555001083761, 2.0754669001325965, 2.289120400091633, 1.7074963999912143, 2.021704899845645, 1.7170013000722975, 1.8571223001927137, 1.6405888001900166, 3.334452000213787, 1.9801407000049949, 1.5376337999477983, 1.6477794998791069, 2.070011999923736, 1.519944699946791, 1.3893156000413, 1.364441400161013, 2.5154001000337303, 1.7698297000024468, 1.2685237999539822, 1.5461949000600725, 1.5403489000163972, 1.7143324001226574]",035672,001,2023-10-27_11h38.35.520,Intentional Binding Task,2022.1.4,59.996136331151284,
0.4,1000,exp,3,4,40,7,192.51713720010594,193.53276220010594,193.49947019992396,None,space,0.4857942999806255,193.49947019992396,None,194.39844593005256,None,194.69568419991992,None,700,194.69568419991992,None,194.69568419991992,None,41,"[3.059096399927512, 3.140477899927646, 3.186534399865195, 2.690847200108692, 2.348012699978426, 3.441637699957937, 2.794587800046429, 1.863550700014457, 5.132225199835375, 2.9737808001227677, 2.561872099991888, 2.5665995001327246, 2.1802060999907553, 2.6793126000557095, 2.2973766999784857, 2.0087262000888586, 2.5118650998920202, 3.2381932998541743, 1.8451487999409437, 2.07545780017972, 2.2891124999150634, 1.7074915000703186, 2.0216967000160366, 1.7169932001270354, 1.8571113999933004, 1.6405806001275778, 3.3344433000311255, 1.9801331998314708, 1.5376269000116736, 1.647773299831897, 2.070005400106311, 1.5199335999786854, 1.3893081001006067, 1.36443360010162, 2.51539249997586, 1.7698188999202102, 1.2684984998777509, 1.5461868999991566, 1.5403406999539584, 1.714323200052604, 1.4628198998980224]","[3.0591049999929965, 3.1404864999931306, 3.186542100040242, 2.6908551999367774, 2.3480215000454336, 3.441647599916905, 2.794595600105822, 1.8635587999597192, 5.132231799885631, 2.9737895999569446, 2.5618789999280125, 2.566607099957764, 2.1802141999360174, 2.6793192999903113, 2.29738079989329, 2.0087345000356436, 2.5118745998479426, 3.2382010999135673, 1.8451555001083761, 2.0754669001325965, 2.289120400091633, 1.7074963999912143, 2.021704899845645, 1.7170013000722975, 1.8571223001927137, 1.6405888001900166, 3.334452000213787, 1.9801407000049949, 1.5376337999477983, 1.6477794998791069, 2.070011999923736, 1.519944699946791, 1.3893156000413, 1.364441400161013, 2.5154001000337303, 1.7698297000024468, 1.2685237999539822, 1.5461949000600725, 1.5403489000163972, 1.7143324001226574, 1.4628278000745922]",035672,001,2023-10-27_11h38.35.520,Intentional Binding Task,2022.1.4,59.996136331151284,
0.7,1000,exp,3,5,41,5,196.16365520004183,197.16277149994858,197.14616389991716,None,space,0.7985286000184715,197.14616389991716,None,198.64452263009736,None,198.94831919996068,None,700,198.94831919996068,None,198.94831919996068,None,42,"[3.059096399927512, 3.140477899927646, 3.186534399865195, 2.690847200108692, 2.348012699978426, 3.441637699957937, 2.794587800046429, 1.863550700014457, 5.132225199835375, 2.9737808001227677, 2.561872099991888, 2.5665995001327246, 2.1802060999907553, 2.6793126000557095, 2.2973766999784857, 2.0087262000888586, 2.5118650998920202, 3.2381932998541743, 1.8451487999409437, 2.07545780017972, 2.2891124999150634, 1.7074915000703186, 2.0216967000160366, 1.7169932001270354, 1.8571113999933004, 1.6405806001275778, 3.3344433000311255, 1.9801331998314708, 1.5376269000116736, 1.647773299831897, 2.070005400106311, 1.5199335999786854, 1.3893081001006067, 1.36443360010162, 2.51539249997586, 1.7698188999202102, 1.2684984998777509, 1.5461868999991566, 1.5403406999539584, 1.714323200052604, 1.4628198998980224, 1.4913926001172513]","[3.0591049999929965, 3.1404864999931306, 3.186542100040242, 2.6908551999367774, 2.3480215000454336, 3.441647599916905, 2.794595600105822, 1.8635587999597192, 5.132231799885631, 2.9737895999569446, 2.5618789999280125, 2.566607099957764, 2.1802141999360174, 2.6793192999903113, 2.29738079989329, 2.0087345000356436, 2.5118745998479426, 3.2382010999135673, 1.8451555001083761, 2.0754669001325965, 2.289120400091633, 1.7074963999912143, 2.021704899845645, 1.7170013000722975, 1.8571223001927137, 1.6405888001900166, 3.334452000213787, 1.9801407000049949, 1.5376337999477983, 1.6477794998791069, 2.070011999923736, 1.519944699946791, 1.3893156000413, 1.364441400161013, 2.5154001000337303, 1.7698297000024468, 1.2685237999539822, 1.5461949000600725, 1.5403489000163972, 1.7143324001226574, 1.4628278000745922, 1.4913991000503302]",035672,001,2023-10-27_11h38.35.520,Intentional Binding Task,2022.1.4,59.996136331151284,
0.4,1000,exp,3,6,42,10,200.44305179989897,201.4419489998836,201.4255431999918,None,space,0.5333669001702219,201.4255431999918,None,202.37455083006063,None,202.70343800005503,None,400,202.70343800005503,None,202.70343800005503,None,43,"[3.059096399927512, 3.140477899927646, 3.186534399865195, 2.690847200108692, 2.348012699978426, 3.441637699957937, 2.794587800046429, 1.863550700014457, 5.132225199835375, 2.9737808001227677, 2.561872099991888, 2.5665995001327246, 2.1802060999907553, 2.6793126000557095, 2.2973766999784857, 2.0087262000888586, 2.5118650998920202, 3.2381932998541743, 1.8451487999409437, 2.07545780017972, 2.2891124999150634, 1.7074915000703186, 2.0216967000160366, 1.7169932001270354, 1.8571113999933004, 1.6405806001275778, 3.3344433000311255, 1.9801331998314708, 1.5376269000116736, 1.647773299831897, 2.070005400106311, 1.5199335999786854, 1.3893081001006067, 1.36443360010162, 2.51539249997586, 1.7698188999202102, 1.2684984998777509, 1.5461868999991566, 1.5403406999539584, 1.714323200052604, 1.4628198998980224, 1.4913926001172513, 2.347047300077975]","[3.0591049999929965, 3.1404864999931306, 3.186542100040242, 2.6908551999367774, 2.3480215000454336, 3.441647599916905, 2.794595600105822, 1.8635587999597192, 5.132231799885631, 2.9737895999569446, 2.5618789999280125, 2.566607099957764, 2.1802141999360174, 2.6793192999903113, 2.29738079989329, 2.0087345000356436, 2.5118745998479426, 3.2382010999135673, 1.8451555001083761, 2.0754669001325965, 2.289120400091633, 1.7074963999912143, 2.021704899845645, 1.7170013000722975, 1.8571223001927137, 1.6405888001900166, 3.334452000213787, 1.9801407000049949, 1.5376337999477983, 1.6477794998791069, 2.070011999923736, 1.519944699946791, 1.3893156000413, 1.364441400161013, 2.5154001000337303, 1.7698297000024468, 1.2685237999539822, 1.5461949000600725, 1.5403489000163972, 1.7143324001226574, 1.4628278000745922, 1.4913991000503302, 2.347053600009531]",035672,001,2023-10-27_11h38.35.520,Intentional Binding Task,2022.1.4,59.996136331151284,
0.1,1000,exp,3,7,43,9,205.05531500000507,206.05435130000114,206.03786669997498,None,space,0.3924438999965787,206.03786669997498,None,206.53704862990418,None,206.83772230008617,None,400,206.83772230008617,None,206.83772230008617,None,44,"[3.059096399927512, 3.140477899927646, 3.186534399865195, 2.690847200108692, 2.348012699978426, 3.441637699957937, 2.794587800046429, 1.863550700014457, 5.132225199835375, 2.9737808001227677, 2.561872099991888, 2.5665995001327246, 2.1802060999907553, 2.6793126000557095, 2.2973766999784857, 2.0087262000888586, 2.5118650998920202, 3.2381932998541743, 1.8451487999409437, 2.07545780017972, 2.2891124999150634, 1.7074915000703186, 2.0216967000160366, 1.7169932001270354, 1.8571113999933004, 1.6405806001275778, 3.3344433000311255, 1.9801331998314708, 1.5376269000116736, 1.647773299831897, 2.070005400106311, 1.5199335999786854, 1.3893081001006067, 1.36443360010162, 2.51539249997586, 1.7698188999202102, 1.2684984998777509, 1.5461868999991566, 1.5403406999539584, 1.714323200052604, 1.4628198998980224, 1.4913926001172513, 2.347047300077975, 1.5461403999943286]","[3.0591049999929965, 3.1404864999931306, 3.186542100040242, 2.6908551999367774, 2.3480215000454336, 3.441647599916905, 2.794595600105822, 1.8635587999597192, 5.132231799885631, 2.9737895999569446, 2.5618789999280125, 2.566607099957764, 2.1802141999360174, 2.6793192999903113, 2.29738079989329, 2.0087345000356436, 2.5118745998479426, 3.2382010999135673, 1.8451555001083761, 2.0754669001325965, 2.289120400091633, 1.7074963999912143, 2.021704899845645, 1.7170013000722975, 1.8571223001927137, 1.6405888001900166, 3.334452000213787, 1.9801407000049949, 1.5376337999477983, 1.6477794998791069, 2.070011999923736, 1.519944699946791, 1.3893156000413, 1.364441400161013, 2.5154001000337303, 1.7698297000024468, 1.2685237999539822, 1.5461949000600725, 1.5403489000163972, 1.7143324001226574, 1.4628278000745922, 1.4913991000503302, 2.347053600009531, 1.546148099936545]",035672,001,2023-10-27_11h38.35.520,Intentional Binding Task,2022.1.4,59.996136331151284,
0.1,400,unexp,3,8,44,0,208.38563690008596,209.38464589999057,209.36821300000884,None,space,0.3378641000017524,209.36821300000884,None,209.8173620299902,None,210.12196699995548,None,100,210.12196699995548,None,210.12196699995548,None,45,"[3.059096399927512, 3.140477899927646, 3.186534399865195, 2.690847200108692, 2.348012699978426, 3.441637699957937, 2.794587800046429, 1.863550700014457, 5.132225199835375, 2.9737808001227677, 2.561872099991888, 2.5665995001327246, 2.1802060999907553, 2.6793126000557095, 2.2973766999784857, 2.0087262000888586, 2.5118650998920202, 3.2381932998541743, 1.8451487999409437, 2.07545780017972, 2.2891124999150634, 1.7074915000703186, 2.0216967000160366, 1.7169932001270354, 1.8571113999933004, 1.6405806001275778, 3.3344433000311255, 1.9801331998314708, 1.5376269000116736, 1.647773299831897, 2.070005400106311, 1.5199335999786854, 1.3893081001006067, 1.36443360010162, 2.51539249997586, 1.7698188999202102, 1.2684984998777509, 1.5461868999991566, 1.5403406999539584, 1.714323200052604, 1.4628198998980224, 1.4913926001172513, 2.347047300077975, 1.5461403999943286, 1.6247972999699414]","[3.0591049999929965, 3.1404864999931306, 3.186542100040242, 2.6908551999367774, 2.3480215000454336, 3.441647599916905, 2.794595600105822, 1.8635587999597192, 5.132231799885631, 2.9737895999569446, 2.5618789999280125, 2.566607099957764, 2.1802141999360174, 2.6793192999903113, 2.29738079989329, 2.0087345000356436, 2.5118745998479426, 3.2382010999135673, 1.8451555001083761, 2.0754669001325965, 2.289120400091633, 1.7074963999912143, 2.021704899845645, 1.7170013000722975, 1.8571223001927137, 1.6405888001900166, 3.334452000213787, 1.9801407000049949, 1.5376337999477983, 1.6477794998791069, 2.070011999923736, 1.519944699946791, 1.3893156000413, 1.364441400161013, 2.5154001000337303, 1.7698297000024468, 1.2685237999539822, 1.5461949000600725, 1.5403489000163972, 1.7143324001226574, 1.4628278000745922, 1.4913991000503302, 2.347053600009531, 1.546148099936545, 1.624806100036949]",035672,001,2023-10-27_11h38.35.520,Intentional Binding Task,2022.1.4,59.996136331151284,
0.7,1000,exp,3,9,45,11,211.74906460009515,212.7485008998774,212.7316888999194,None,space,0.3656170000322163,212.7316888999194,None,213.7971293299459,None,214.10810919990763,None,700,214.10810919990763,None,214.10810919990763,None,46,"[3.059096399927512, 3.140477899927646, 3.186534399865195, 2.690847200108692, 2.348012699978426, 3.441637699957937, 2.794587800046429, 1.863550700014457, 5.132225199835375, 2.9737808001227677, 2.561872099991888, 2.5665995001327246, 2.1802060999907553, 2.6793126000557095, 2.2973766999784857, 2.0087262000888586, 2.5118650998920202, 3.2381932998541743, 1.8451487999409437, 2.07545780017972, 2.2891124999150634, 1.7074915000703186, 2.0216967000160366, 1.7169932001270354, 1.8571113999933004, 1.6405806001275778, 3.3344433000311255, 1.9801331998314708, 1.5376269000116736, 1.647773299831897, 2.070005400106311, 1.5199335999786854, 1.3893081001006067, 1.36443360010162, 2.51539249997586, 1.7698188999202102, 1.2684984998777509, 1.5461868999991566, 1.5403406999539584, 1.714323200052604, 1.4628198998980224, 1.4913926001172513, 2.347047300077975, 1.5461403999943286, 1.6247972999699414, 1.1842421998735517]","[3.0591049999929965, 3.1404864999931306, 3.186542100040242, 2.6908551999367774, 2.3480215000454336, 3.441647599916905, 2.794595600105822, 1.8635587999597192, 5.132231799885631, 2.9737895999569446, 2.5618789999280125, 2.566607099957764, 2.1802141999360174, 2.6793192999903113, 2.29738079989329, 2.0087345000356436, 2.5118745998479426, 3.2382010999135673, 1.8451555001083761, 2.0754669001325965, 2.289120400091633, 1.7074963999912143, 2.021704899845645, 1.7170013000722975, 1.8571223001927137, 1.6405888001900166, 3.334452000213787, 1.9801407000049949, 1.5376337999477983, 1.6477794998791069, 2.070011999923736, 1.519944699946791, 1.3893156000413, 1.364441400161013, 2.5154001000337303, 1.7698297000024468, 1.2685237999539822, 1.5461949000600725, 1.5403489000163972, 1.7143324001226574, 1.4628278000745922, 1.4913991000503302, 2.347053600009531, 1.546148099936545, 1.624806100036949, 1.184249100042507]",035672,001,2023-10-27_11h38.35.520,Intentional Binding Task,2022.1.4,59.996136331151284,
0.4,400,unexp,3,10,46,1,215.29571190010756,216.29485259996727,216.27829809999093,None,space,0.2648324999026954,216.27829809999093,None,216.9443741300609,None,217.25105180009268,None,400,217.25105180009268,None,217.25105180009268,None,47,"[3.059096399927512, 3.140477899927646, 3.186534399865195, 2.690847200108692, 2.348012699978426, 3.441637699957937, 2.794587800046429, 1.863550700014457, 5.132225199835375, 2.9737808001227677, 2.561872099991888, 2.5665995001327246, 2.1802060999907553, 2.6793126000557095, 2.2973766999784857, 2.0087262000888586, 2.5118650998920202, 3.2381932998541743, 1.8451487999409437, 2.07545780017972, 2.2891124999150634, 1.7074915000703186, 2.0216967000160366, 1.7169932001270354, 1.8571113999933004, 1.6405806001275778, 3.3344433000311255, 1.9801331998314708, 1.5376269000116736, 1.647773299831897, 2.070005400106311, 1.5199335999786854, 1.3893081001006067, 1.36443360010162, 2.51539249997586, 1.7698188999202102, 1.2684984998777509, 1.5461868999991566, 1.5403406999539584, 1.714323200052604, 1.4628198998980224, 1.4913926001172513, 2.347047300077975, 1.5461403999943286, 1.6247972999699414, 1.1842421998735517, 2.7032431999687105]","[3.0591049999929965, 3.1404864999931306, 3.186542100040242, 2.6908551999367774, 2.3480215000454336, 3.441647599916905, 2.794595600105822, 1.8635587999597192, 5.132231799885631, 2.9737895999569446, 2.5618789999280125, 2.566607099957764, 2.1802141999360174, 2.6793192999903113, 2.29738079989329, 2.0087345000356436, 2.5118745998479426, 3.2382010999135673, 1.8451555001083761, 2.0754669001325965, 2.289120400091633, 1.7074963999912143, 2.021704899845645, 1.7170013000722975, 1.8571223001927137, 1.6405888001900166, 3.334452000213787, 1.9801407000049949, 1.5376337999477983, 1.6477794998791069, 2.070011999923736, 1.519944699946791, 1.3893156000413, 1.364441400161013, 2.5154001000337303, 1.7698297000024468, 1.2685237999539822, 1.5461949000600725, 1.5403489000163972, 1.7143324001226574, 1.4628278000745922, 1.4913991000503302, 2.347053600009531, 1.546148099936545, 1.624806100036949, 1.184249100042507, 2.703251900151372]",035672,001,2023-10-27_11h38.35.520,Intentional Binding Task,2022.1.4,59.996136331151284,
0.1,1000,exp,3,11,47,6,219.95815779990517,220.95715899998322,220.94072389998473,None,space,0.33833769988268614,220.94072389998473,None,221.38992343000137,None,221.69420420005918,None,100,221.69420420005918,None,221.69420420005918,None,48,"[3.059096399927512, 3.140477899927646, 3.186534399865195, 2.690847200108692, 2.348012699978426, 3.441637699957937, 2.794587800046429, 1.863550700014457, 5.132225199835375, 2.9737808001227677, 2.561872099991888, 2.5665995001327246, 2.1802060999907553, 2.6793126000557095, 2.2973766999784857, 2.0087262000888586, 2.5118650998920202, 3.2381932998541743, 1.8451487999409437, 2.07545780017972, 2.2891124999150634, 1.7074915000703186, 2.0216967000160366, 1.7169932001270354, 1.8571113999933004, 1.6405806001275778, 3.3344433000311255, 1.9801331998314708, 1.5376269000116736, 1.647773299831897, 2.070005400106311, 1.5199335999786854, 1.3893081001006067, 1.36443360010162, 2.51539249997586, 1.7698188999202102, 1.2684984998777509, 1.5461868999991566, 1.5403406999539584, 1.714323200052604, 1.4628198998980224, 1.4913926001172513, 2.347047300077975, 1.5461403999943286, 1.6247972999699414, 1.1842421998735517, 2.7032431999687105, 2.2402800999116153]","[3.0591049999929965, 3.1404864999931306, 3.186542100040242, 2.6908551999367774, 2.3480215000454336, 3.441647599916905, 2.794595600105822, 1.8635587999597192, 5.132231799885631, 2.9737895999569446, 2.5618789999280125, 2.566607099957764, 2.1802141999360174, 2.6793192999903113, 2.29738079989329, 2.0087345000356436, 2.5118745998479426, 3.2382010999135673, 1.8451555001083761, 2.0754669001325965, 2.289120400091633, 1.7074963999912143, 2.021704899845645, 1.7170013000722975, 1.8571223001927137, 1.6405888001900166, 3.334452000213787, 1.9801407000049949, 1.5376337999477983, 1.6477794998791069, 2.070011999923736, 1.519944699946791, 1.3893156000413, 1.364441400161013, 2.5154001000337303, 1.7698297000024468, 1.2685237999539822, 1.5461949000600725, 1.5403489000163972, 1.7143324001226574, 1.4628278000745922, 1.4913991000503302, 2.347053600009531, 1.546148099936545, 1.624806100036949, 1.184249100042507, 2.703251900151372, 2.24029009998776]",035672,001,2023-10-27_11h38.35.520,Intentional Binding Task,2022.1.4,59.996136331151284,
0.7,1000,exp,4,0,48,5,223.9377454998903,224.93678970006295,224.92027639993466,None,space,0.46764550008811057,224.92027639993466,None,226.10244563007728,None,226.41813779994845,None,700,226.41813779994845,None,226.41813779994845,None,49,"[3.059096399927512, 3.140477899927646, 3.186534399865195, 2.690847200108692, 2.348012699978426, 3.441637699957937, 2.794587800046429, 1.863550700014457, 5.132225199835375, 2.9737808001227677, 2.561872099991888, 2.5665995001327246, 2.1802060999907553, 2.6793126000557095, 2.2973766999784857, 2.0087262000888586, 2.5118650998920202, 3.2381932998541743, 1.8451487999409437, 2.07545780017972, 2.2891124999150634, 1.7074915000703186, 2.0216967000160366, 1.7169932001270354, 1.8571113999933004, 1.6405806001275778, 3.3344433000311255, 1.9801331998314708, 1.5376269000116736, 1.647773299831897, 2.070005400106311, 1.5199335999786854, 1.3893081001006067, 1.36443360010162, 2.51539249997586, 1.7698188999202102, 1.2684984998777509, 1.5461868999991566, 1.5403406999539584, 1.714323200052604, 1.4628198998980224, 1.4913926001172513, 2.347047300077975, 1.5461403999943286, 1.6247972999699414, 1.1842421998735517, 2.7032431999687105, 2.2402800999116153, 1.4461171999573708]","[3.0591049999929965, 3.1404864999931306, 3.186542100040242, 2.6908551999367774, 2.3480215000454336, 3.441647599916905, 2.794595600105822, 1.8635587999597192, 5.132231799885631, 2.9737895999569446, 2.5618789999280125, 2.566607099957764, 2.1802141999360174, 2.6793192999903113, 2.29738079989329, 2.0087345000356436, 2.5118745998479426, 3.2382010999135673, 1.8451555001083761, 2.0754669001325965, 2.289120400091633, 1.7074963999912143, 2.021704899845645, 1.7170013000722975, 1.8571223001927137, 1.6405888001900166, 3.334452000213787, 1.9801407000049949, 1.5376337999477983, 1.6477794998791069, 2.070011999923736, 1.519944699946791, 1.3893156000413, 1.364441400161013, 2.5154001000337303, 1.7698297000024468, 1.2685237999539822, 1.5461949000600725, 1.5403489000163972, 1.7143324001226574, 1.4628278000745922, 1.4913991000503302, 2.347053600009531, 1.546148099936545, 1.624806100036949, 1.184249100042507, 2.703251900151372, 2.24029009998776, 1.4461255001369864]",035672,001,2023-10-27_11h38.35.520,Intentional Binding Task,2022.1.4,59.996136331151284,
0.7,1000,exp,4,1,49,11,227.86737990006804,228.86646430008113,228.84976339992136,None,space,1.0354490999598056,228.84976339992136,None,230.59816912999378,None,230.86560370004736,None,700,230.86560370004736,None,230.86560370004736,None,50,"[3.059096399927512, 3.140477899927646, 3.186534399865195, 2.690847200108692, 2.348012699978426, 3.441637699957937, 2.794587800046429, 1.863550700014457, 5.132225199835375, 2.9737808001227677, 2.561872099991888, 2.5665995001327246, 2.1802060999907553, 2.6793126000557095, 2.2973766999784857, 2.0087262000888586, 2.5118650998920202, 3.2381932998541743, 1.8451487999409437, 2.07545780017972, 2.2891124999150634, 1.7074915000703186, 2.0216967000160366, 1.7169932001270354, 1.8571113999933004, 1.6405806001275778, 3.3344433000311255, 1.9801331998314708, 1.5376269000116736, 1.647773299831897, 2.070005400106311, 1.5199335999786854, 1.3893081001006067, 1.36443360010162, 2.51539249997586, 1.7698188999202102, 1.2684984998777509, 1.5461868999991566, 1.5403406999539584, 1.714323200052604, 1.4628198998980224, 1.4913926001172513, 2.347047300077975, 1.5461403999943286, 1.6247972999699414, 1.1842421998735517, 2.7032431999687105, 2.2402800999116153, 1.4461171999573708, 1.2961797001771629]","[3.0591049999929965, 3.1404864999931306, 3.186542100040242, 2.6908551999367774, 2.3480215000454336, 3.441647599916905, 2.794595600105822, 1.8635587999597192, 5.132231799885631, 2.9737895999569446, 2.5618789999280125, 2.566607099957764, 2.1802141999360174, 2.6793192999903113, 2.29738079989329, 2.0087345000356436, 2.5118745998479426, 3.2382010999135673, 1.8451555001083761, 2.0754669001325965, 2.289120400091633, 1.7074963999912143, 2.021704899845645, 1.7170013000722975, 1.8571223001927137, 1.6405888001900166, 3.334452000213787, 1.9801407000049949, 1.5376337999477983, 1.6477794998791069, 2.070011999923736, 1.519944699946791, 1.3893156000413, 1.364441400161013, 2.5154001000337303, 1.7698297000024468, 1.2685237999539822, 1.5461949000600725, 1.5403489000163972, 1.7143324001226574, 1.4628278000745922, 1.4913991000503302, 2.347053600009531, 1.546148099936545, 1.624806100036949, 1.184249100042507, 2.703251900151372, 2.24029009998776, 1.4461255001369864, 1.296187800122425]",035672,001,2023-10-27_11h38.35.520,Intentional Binding Task,2022.1.4,59.996136331151284,
0.4,1000,exp,4,2,50,7,232.16337090008892,233.16245649987832,233.14578370004892,None,space,0.2883526999503374,233.14578370004892,None,233.84501532996075,None,234.1597937999759,None,400,234.1597937999759,None,234.1597937999759,None,51,"[3.059096399927512, 3.140477899927646, 3.186534399865195, 2.690847200108692, 2.348012699978426, 3.441637699957937, 2.794587800046429, 1.863550700014457, 5.132225199835375, 2.9737808001227677, 2.561872099991888, 2.5665995001327246, 2.1802060999907553, 2.6793126000557095, 2.2973766999784857, 2.0087262000888586, 2.5118650998920202, 3.2381932998541743, 1.8451487999409437, 2.07545780017972, 2.2891124999150634, 1.7074915000703186, 2.0216967000160366, 1.7169932001270354, 1.8571113999933004, 1.6405806001275778, 3.3344433000311255, 1.9801331998314708, 1.5376269000116736, 1.647773299831897, 2.070005400106311, 1.5199335999786854, 1.3893081001006067, 1.36443360010162, 2.51539249997586, 1.7698188999202102, 1.2684984998777509, 1.5461868999991566, 1.5403406999539584, 1.714323200052604, 1.4628198998980224, 1.4913926001172513, 2.347047300077975, 1.5461403999943286, 1.6247972999699414, 1.1842421998735517, 2.7032431999687105, 2.2402800999116153, 1.4461171999573708, 1.2961797001771629, 1.3979313001036644]","[3.0591049999929965, 3.1404864999931306, 3.186542100040242, 2.6908551999367774, 2.3480215000454336, 3.441647599916905, 2.794595600105822, 1.8635587999597192, 5.132231799885631, 2.9737895999569446, 2.5618789999280125, 2.566607099957764, 2.1802141999360174, 2.6793192999903113, 2.29738079989329, 2.0087345000356436, 2.5118745998479426, 3.2382010999135673, 1.8451555001083761, 2.0754669001325965, 2.289120400091633, 1.7074963999912143, 2.021704899845645, 1.7170013000722975, 1.8571223001927137, 1.6405888001900166, 3.334452000213787, 1.9801407000049949, 1.5376337999477983, 1.6477794998791069, 2.070011999923736, 1.519944699946791, 1.3893156000413, 1.364441400161013, 2.5154001000337303, 1.7698297000024468, 1.2685237999539822, 1.5461949000600725, 1.5403489000163972, 1.7143324001226574, 1.4628278000745922, 1.4913991000503302, 2.347053600009531, 1.546148099936545, 1.624806100036949, 1.184249100042507, 2.703251900151372, 2.24029009998776, 1.4461255001369864, 1.296187800122425, 1.3979350000154227]",035672,001,2023-10-27_11h38.35.520,Intentional Binding Task,2022.1.4,59.996136331151284,
0.4,1000,exp,4,3,51,4,235.56022210000083,236.55911729997024,236.54265760001726,None,space,0.761063399957493,236.54265760001726,None,237.7082113299519,None,238.01667480007745,None,400,238.01667480007745,None,238.01667480007745,None,52,"[3.059096399927512, 3.140477899927646, 3.186534399865195, 2.690847200108692, 2.348012699978426, 3.441637699957937, 2.794587800046429, 1.863550700014457, 5.132225199835375, 2.9737808001227677, 2.561872099991888, 2.5665995001327246, 2.1802060999907553, 2.6793126000557095, 2.2973766999784857, 2.0087262000888586, 2.5118650998920202, 3.2381932998541743, 1.8451487999409437, 2.07545780017972, 2.2891124999150634, 1.7074915000703186, 2.0216967000160366, 1.7169932001270354, 1.8571113999933004, 1.6405806001275778, 3.3344433000311255, 1.9801331998314708, 1.5376269000116736, 1.647773299831897, 2.070005400106311, 1.5199335999786854, 1.3893081001006067, 1.36443360010162, 2.51539249997586, 1.7698188999202102, 1.2684984998777509, 1.5461868999991566, 1.5403406999539584, 1.714323200052604, 1.4628198998980224, 1.4913926001172513, 2.347047300077975, 1.5461403999943286, 1.6247972999699414, 1.1842421998735517, 2.7032431999687105, 2.2402800999116153, 1.4461171999573708, 1.2961797001771629, 1.3979313001036644, 1.834891599835828]","[3.0591049999929965, 3.1404864999931306, 3.186542100040242, 2.6908551999367774, 2.3480215000454336, 3.441647599916905, 2.794595600105822, 1.8635587999597192, 5.132231799885631, 2.9737895999569446, 2.5618789999280125, 2.566607099957764, 2.1802141999360174, 2.6793192999903113, 2.29738079989329, 2.0087345000356436, 2.5118745998479426, 3.2382010999135673, 1.8451555001083761, 2.0754669001325965, 2.289120400091633, 1.7074963999912143, 2.021704899845645, 1.7170013000722975, 1.8571223001927137, 1.6405888001900166, 3.334452000213787, 1.9801407000049949, 1.5376337999477983, 1.6477794998791069, 2.070011999923736, 1.519944699946791, 1.3893156000413, 1.364441400161013, 2.5154001000337303, 1.7698297000024468, 1.2685237999539822, 1.5461949000600725, 1.5403489000163972, 1.7143324001226574, 1.4628278000745922, 1.4913991000503302, 2.347053600009531, 1.546148099936545, 1.624806100036949, 1.184249100042507, 2.703251900151372, 2.24029009998776, 1.4461255001369864, 1.296187800122425, 1.3979350000154227, 1.8348999000154436]",035672,001,2023-10-27_11h38.35.520,Intentional Binding Task,2022.1.4,59.996136331151284,
0.1,1000,exp,4,4,52,6,239.85621250001714,240.85522289993241,240.8386804999318,None,space,0.25520410016179085,240.8386804999318,None,241.20472072991544,None,241.51933129993267,None,100,241.51933129993267,None,241.51933129993267,None,53,"[3.059096399927512, 3.140477899927646, 3.186534399865195, 2.690847200108692, 2.348012699978426, 3.441637699957937, 2.794587800046429, 1.863550700014457, 5.132225199835375, 2.9737808001227677, 2.561872099991888, 2.5665995001327246, 2.1802060999907553, 2.6793126000557095, 2.2973766999784857, 2.0087262000888586, 2.5118650998920202, 3.2381932998541743, 1.8451487999409437, 2.07545780017972, 2.2891124999150634, 1.7074915000703186, 2.0216967000160366, 1.7169932001270354, 1.8571113999933004, 1.6405806001275778, 3.3344433000311255, 1.9801331998314708, 1.5376269000116736, 1.647773299831897, 2.070005400106311, 1.5199335999786854, 1.3893081001006067, 1.36443360010162, 2.51539249997586, 1.7698188999202102, 1.2684984998777509, 1.5461868999991566, 1.5403406999539584, 1.714323200052604, 1.4628198998980224, 1.4913926001172513, 2.347047300077975, 1.5461403999943286, 1.6247972999699414, 1.1842421998735517, 2.7032431999687105, 2.2402800999116153, 1.4461171999573708, 1.2961797001771629, 1.3979313001036644, 1.834891599835828, 2.4959462000988424]","[3.0591049999929965, 3.1404864999931306, 3.186542100040242, 2.6908551999367774, 2.3480215000454336, 3.441647599916905, 2.794595600105822, 1.8635587999597192, 5.132231799885631, 2.9737895999569446, 2.5618789999280125, 2.566607099957764, 2.1802141999360174, 2.6793192999903113, 2.29738079989329, 2.0087345000356436, 2.5118745998479426, 3.2382010999135673, 1.8451555001083761, 2.0754669001325965, 2.289120400091633, 1.7074963999912143, 2.021704899845645, 1.7170013000722975, 1.8571223001927137, 1.6405888001900166, 3.334452000213787, 1.9801407000049949, 1.5376337999477983, 1.6477794998791069, 2.070011999923736, 1.519944699946791, 1.3893156000413, 1.364441400161013, 2.5154001000337303, 1.7698297000024468, 1.2685237999539822, 1.5461949000600725, 1.5403489000163972, 1.7143324001226574, 1.4628278000745922, 1.4913991000503302, 2.347053600009531, 1.546148099936545, 1.624806100036949, 1.184249100042507, 2.703251900151372, 2.24029009998776, 1.4461255001369864, 1.296187800122425, 1.3979350000154227, 1.8348999000154436, 2.4959544001612812]",035672,001,2023-10-27_11h38.35.520,Intentional Binding Task,2022.1.4,59.996136331151284,
0.7,1000,exp,4,5,53,8,244.01902769994922,245.01799140009098,245.00144220003858,None,space,0.5350370998494327,245.00144220003858,None,246.25025052991697,None,246.5916410998907,None,700,246.5916410998907,None,246.5916410998907,None,54,"[3.059096399927512, 3.140477899927646, 3.186534399865195, 2.690847200108692, 2.348012699978426, 3.441637699957937, 2.794587800046429, 1.863550700014457, 5.132225199835375, 2.9737808001227677, 2.561872099991888, 2.5665995001327246, 2.1802060999907553, 2.6793126000557095, 2.2973766999784857, 2.0087262000888586, 2.5118650998920202, 3.2381932998541743, 1.8451487999409437, 2.07545780017972, 2.2891124999150634, 1.7074915000703186, 2.0216967000160366, 1.7169932001270354, 1.8571113999933004, 1.6405806001275778, 3.3344433000311255, 1.9801331998314708, 1.5376269000116736, 1.647773299831897, 2.070005400106311, 1.5199335999786854, 1.3893081001006067, 1.36443360010162, 2.51539249997586, 1.7698188999202102, 1.2684984998777509, 1.5461868999991566, 1.5403406999539584, 1.714323200052604, 1.4628198998980224, 1.4913926001172513, 2.347047300077975, 1.5461403999943286, 1.6247972999699414, 1.1842421998735517, 2.7032431999687105, 2.2402800999116153, 1.4461171999573708, 1.2961797001771629, 1.3979313001036644, 1.834891599835828, 2.4959462000988424, 1.7178515000268817]","[3.0591049999929965, 3.1404864999931306, 3.186542100040242, 2.6908551999367774, 2.3480215000454336, 3.441647599916905, 2.794595600105822, 1.8635587999597192, 5.132231799885631, 2.9737895999569446, 2.5618789999280125, 2.566607099957764, 2.1802141999360174, 2.6793192999903113, 2.29738079989329, 2.0087345000356436, 2.5118745998479426, 3.2382010999135673, 1.8451555001083761, 2.0754669001325965, 2.289120400091633, 1.7074963999912143, 2.021704899845645, 1.7170013000722975, 1.8571223001927137, 1.6405888001900166, 3.334452000213787, 1.9801407000049949, 1.5376337999477983, 1.6477794998791069, 2.070011999923736, 1.519944699946791, 1.3893156000413, 1.364441400161013, 2.5154001000337303, 1.7698297000024468, 1.2685237999539822, 1.5461949000600725, 1.5403489000163972, 1.7143324001226574, 1.4628278000745922, 1.4913991000503302, 2.347053600009531, 1.546148099936545, 1.624806100036949, 1.184249100042507, 2.703251900151372, 2.24029009998776, 1.4461255001369864, 1.296187800122425, 1.3979350000154227, 1.8348999000154436, 2.4959544001612812, 1.7178598998580128]",035672,001,2023-10-27_11h38.35.520,Intentional Binding Task,2022.1.4,59.996136331151284,
0.1,1000,exp,4,6,54,3,248.31496859993786,249.3307058000937,249.29726890008897,None,space,0.6245317000430077,249.29726890008897,None,250.03001343011857,None,250.38333450001664,None,400,250.38333450001664,None,250.38333450001664,None,55,"[3.059096399927512, 3.140477899927646, 3.186534399865195, 2.690847200108692, 2.348012699978426, 3.441637699957937, 2.794587800046429, 1.863550700014457, 5.132225199835375, 2.9737808001227677, 2.561872099991888, 2.5665995001327246, 2.1802060999907553, 2.6793126000557095, 2.2973766999784857, 2.0087262000888586, 2.5118650998920202, 3.2381932998541743, 1.8451487999409437, 2.07545780017972, 2.2891124999150634, 1.7074915000703186, 2.0216967000160366, 1.7169932001270354, 1.8571113999933004, 1.6405806001275778, 3.3344433000311255, 1.9801331998314708, 1.5376269000116736, 1.647773299831897, 2.070005400106311, 1.5199335999786854, 1.3893081001006067, 1.36443360010162, 2.51539249997586, 1.7698188999202102, 1.2684984998777509, 1.5461868999991566, 1.5403406999539584, 1.714323200052604, 1.4628198998980224, 1.4913926001172513, 2.347047300077975, 1.5461403999943286, 1.6247972999699414, 1.1842421998735517, 2.7032431999687105, 2.2402800999116153, 1.4461171999573708, 1.2961797001771629, 1.3979313001036644, 1.834891599835828, 2.4959462000988424, 1.7178515000268817, 3.3563273998443037]","[3.0591049999929965, 3.1404864999931306, 3.186542100040242, 2.6908551999367774, 2.3480215000454336, 3.441647599916905, 2.794595600105822, 1.8635587999597192, 5.132231799885631, 2.9737895999569446, 2.5618789999280125, 2.566607099957764, 2.1802141999360174, 2.6793192999903113, 2.29738079989329, 2.0087345000356436, 2.5118745998479426, 3.2382010999135673, 1.8451555001083761, 2.0754669001325965, 2.289120400091633, 1.7074963999912143, 2.021704899845645, 1.7170013000722975, 1.8571223001927137, 1.6405888001900166, 3.334452000213787, 1.9801407000049949, 1.5376337999477983, 1.6477794998791069, 2.070011999923736, 1.519944699946791, 1.3893156000413, 1.364441400161013, 2.5154001000337303, 1.7698297000024468, 1.2685237999539822, 1.5461949000600725, 1.5403489000163972, 1.7143324001226574, 1.4628278000745922, 1.4913991000503302, 2.347053600009531, 1.546148099936545, 1.624806100036949, 1.184249100042507, 2.703251900151372, 2.24029009998776, 1.4461255001369864, 1.296187800122425, 1.3979350000154227, 1.8348999000154436, 2.4959544001612812, 1.7178598998580128, 3.3563355000223964]",035672,001,2023-10-27_11h38.35.520,Intentional Binding Task,2022.1.4,59.996136331151284,
0.4,400,unexp,4,7,55,1,253.7431439999491,254.74236360006034,254.7256118999794,None,space,0.5293656999710947,254.7256118999794,None,255.6578389300965,None,255.95959270000458,None,700,255.95959270000458,None,255.95959270000458,None,56,"[3.059096399927512, 3.140477899927646, 3.186534399865195, 2.690847200108692, 2.348012699978426, 3.441637699957937, 2.794587800046429, 1.863550700014457, 5.132225199835375, 2.9737808001227677, 2.561872099991888, 2.5665995001327246, 2.1802060999907553, 2.6793126000557095, 2.2973766999784857, 2.0087262000888586, 2.5118650998920202, 3.2381932998541743, 1.8451487999409437, 2.07545780017972, 2.2891124999150634, 1.7074915000703186, 2.0216967000160366, 1.7169932001270354, 1.8571113999933004, 1.6405806001275778, 3.3344433000311255, 1.9801331998314708, 1.5376269000116736, 1.647773299831897, 2.070005400106311, 1.5199335999786854, 1.3893081001006067, 1.36443360010162, 2.51539249997586, 1.7698188999202102, 1.2684984998777509, 1.5461868999991566, 1.5403406999539584, 1.714323200052604, 1.4628198998980224, 1.4913926001172513, 2.347047300077975, 1.5461403999943286, 1.6247972999699414, 1.1842421998735517, 2.7032431999687105, 2.2402800999116153, 1.4461171999573708, 1.2961797001771629, 1.3979313001036644, 1.834891599835828, 2.4959462000988424, 1.7178515000268817, 3.3563273998443037, 2.3093347002286464]","[3.0591049999929965, 3.1404864999931306, 3.186542100040242, 2.6908551999367774, 2.3480215000454336, 3.441647599916905, 2.794595600105822, 1.8635587999597192, 5.132231799885631, 2.9737895999569446, 2.5618789999280125, 2.566607099957764, 2.1802141999360174, 2.6793192999903113, 2.29738079989329, 2.0087345000356436, 2.5118745998479426, 3.2382010999135673, 1.8451555001083761, 2.0754669001325965, 2.289120400091633, 1.7074963999912143, 2.021704899845645, 1.7170013000722975, 1.8571223001927137, 1.6405888001900166, 3.334452000213787, 1.9801407000049949, 1.5376337999477983, 1.6477794998791069, 2.070011999923736, 1.519944699946791, 1.3893156000413, 1.364441400161013, 2.5154001000337303, 1.7698297000024468, 1.2685237999539822, 1.5461949000600725, 1.5403489000163972, 1.7143324001226574, 1.4628278000745922, 1.4913991000503302, 2.347053600009531, 1.546148099936545, 1.624806100036949, 1.184249100042507, 2.703251900151372, 2.24029009998776, 1.4461255001369864, 1.296187800122425, 1.3979350000154227, 1.8348999000154436, 2.4959544001612812, 1.7178598998580128, 3.3563355000223964, 2.3093415000475943]",035672,001,2023-10-27_11h38.35.520,Intentional Binding Task,2022.1.4,59.996136331151284,
0.1,400,unexp,4,8,56,0,258.27221490000375,259.27141420007683,259.25482570007443,None,space,0.2987306001596153,259.25482570007443,None,259.6541432300117,None,259.9677514000796,None,400,259.9677514000796,None,259.9677514000796,None,57,"[3.059096399927512, 3.140477899927646, 3.186534399865195, 2.690847200108692, 2.348012699978426, 3.441637699957937, 2.794587800046429, 1.863550700014457, 5.132225199835375, 2.9737808001227677, 2.561872099991888, 2.5665995001327246, 2.1802060999907553, 2.6793126000557095, 2.2973766999784857, 2.0087262000888586, 2.5118650998920202, 3.2381932998541743, 1.8451487999409437, 2.07545780017972, 2.2891124999150634, 1.7074915000703186, 2.0216967000160366, 1.7169932001270354, 1.8571113999933004, 1.6405806001275778, 3.3344433000311255, 1.9801331998314708, 1.5376269000116736, 1.647773299831897, 2.070005400106311, 1.5199335999786854, 1.3893081001006067, 1.36443360010162, 2.51539249997586, 1.7698188999202102, 1.2684984998777509, 1.5461868999991566, 1.5403406999539584, 1.714323200052604, 1.4628198998980224, 1.4913926001172513, 2.347047300077975, 1.5461403999943286, 1.6247972999699414, 1.1842421998735517, 2.7032431999687105, 2.2402800999116153, 1.4461171999573708, 1.2961797001771629, 1.3979313001036644, 1.834891599835828, 2.4959462000988424, 1.7178515000268817, 3.3563273998443037, 2.3093347002286464, 3.628484500106424]","[3.0591049999929965, 3.1404864999931306, 3.186542100040242, 2.6908551999367774, 2.3480215000454336, 3.441647599916905, 2.794595600105822, 1.8635587999597192, 5.132231799885631, 2.9737895999569446, 2.5618789999280125, 2.566607099957764, 2.1802141999360174, 2.6793192999903113, 2.29738079989329, 2.0087345000356436, 2.5118745998479426, 3.2382010999135673, 1.8451555001083761, 2.0754669001325965, 2.289120400091633, 1.7074963999912143, 2.021704899845645, 1.7170013000722975, 1.8571223001927137, 1.6405888001900166, 3.334452000213787, 1.9801407000049949, 1.5376337999477983, 1.6477794998791069, 2.070011999923736, 1.519944699946791, 1.3893156000413, 1.364441400161013, 2.5154001000337303, 1.7698297000024468, 1.2685237999539822, 1.5461949000600725, 1.5403489000163972, 1.7143324001226574, 1.4628278000745922, 1.4913991000503302, 2.347053600009531, 1.546148099936545, 1.624806100036949, 1.184249100042507, 2.703251900151372, 2.24029009998776, 1.4461255001369864, 1.296187800122425, 1.3979350000154227, 1.8348999000154436, 2.4959544001612812, 1.7178598998580128, 3.3563355000223964, 2.3093415000475943, 3.6284900000318885]",035672,001,2023-10-27_11h38.35.520,Intentional Binding Task,2022.1.4,59.996136331151284,
0.7,400,unexp,4,9,57,2,263.6005824999884,264.59958519996144,264.58317320002243,None,space,0.3477702001109719,264.58317320002243,None,265.631864630105,None,265.917765900027,None,700,265.917765900027,None,265.917765900027,None,58,"[3.059096399927512, 3.140477899927646, 3.186534399865195, 2.690847200108692, 2.348012699978426, 3.441637699957937, 2.794587800046429, 1.863550700014457, 5.132225199835375, 2.9737808001227677, 2.561872099991888, 2.5665995001327246, 2.1802060999907553, 2.6793126000557095, 2.2973766999784857, 2.0087262000888586, 2.5118650998920202, 3.2381932998541743, 1.8451487999409437, 2.07545780017972, 2.2891124999150634, 1.7074915000703186, 2.0216967000160366, 1.7169932001270354, 1.8571113999933004, 1.6405806001275778, 3.3344433000311255, 1.9801331998314708, 1.5376269000116736, 1.647773299831897, 2.070005400106311, 1.5199335999786854, 1.3893081001006067, 1.36443360010162, 2.51539249997586, 1.7698188999202102, 1.2684984998777509, 1.5461868999991566, 1.5403406999539584, 1.714323200052604, 1.4628198998980224, 1.4913926001172513, 2.347047300077975, 1.5461403999943286, 1.6247972999699414, 1.1842421998735517, 2.7032431999687105, 2.2402800999116153, 1.4461171999573708, 1.2961797001771629, 1.3979313001036644, 1.834891599835828, 2.4959462000988424, 1.7178515000268817, 3.3563273998443037, 2.3093347002286464, 3.628484500106424, 1.9577023999299854]","[3.0591049999929965, 3.1404864999931306, 3.186542100040242, 2.6908551999367774, 2.3480215000454336, 3.441647599916905, 2.794595600105822, 1.8635587999597192, 5.132231799885631, 2.9737895999569446, 2.5618789999280125, 2.566607099957764, 2.1802141999360174, 2.6793192999903113, 2.29738079989329, 2.0087345000356436, 2.5118745998479426, 3.2382010999135673, 1.8451555001083761, 2.0754669001325965, 2.289120400091633, 1.7074963999912143, 2.021704899845645, 1.7170013000722975, 1.8571223001927137, 1.6405888001900166, 3.334452000213787, 1.9801407000049949, 1.5376337999477983, 1.6477794998791069, 2.070011999923736, 1.519944699946791, 1.3893156000413, 1.364441400161013, 2.5154001000337303, 1.7698297000024468, 1.2685237999539822, 1.5461949000600725, 1.5403489000163972, 1.7143324001226574, 1.4628278000745922, 1.4913991000503302, 2.347053600009531, 1.546148099936545, 1.624806100036949, 1.184249100042507, 2.703251900151372, 2.24029009998776, 1.4461255001369864, 1.296187800122425, 1.3979350000154227, 1.8348999000154436, 2.4959544001612812, 1.7178598998580128, 3.3563355000223964, 2.3093415000475943, 3.6284900000318885, 1.957711199996993]",035672,001,2023-10-27_11h38.35.520,Intentional Binding Task,2022.1.4,59.996136331151284,
0.4,1000,exp,4,10,58,10,267.87997310003266,268.8790774999652,268.8624946998898,None,space,0.3463423000648618,268.8624946998898,None,269.61182162999177,None,269.9261402999982,None,100,269.9261402999982,None,269.9261402999982,None,59,"[3.059096399927512, 3.140477899927646, 3.186534399865195, 2.690847200108692, 2.348012699978426, 3.441637699957937, 2.794587800046429, 1.863550700014457, 5.132225199835375, 2.9737808001227677, 2.561872099991888, 2.5665995001327246, 2.1802060999907553, 2.6793126000557095, 2.2973766999784857, 2.0087262000888586, 2.5118650998920202, 3.2381932998541743, 1.8451487999409437, 2.07545780017972, 2.2891124999150634, 1.7074915000703186, 2.0216967000160366, 1.7169932001270354, 1.8571113999933004, 1.6405806001275778, 3.3344433000311255, 1.9801331998314708, 1.5376269000116736, 1.647773299831897, 2.070005400106311, 1.5199335999786854, 1.3893081001006067, 1.36443360010162, 2.51539249997586, 1.7698188999202102, 1.2684984998777509, 1.5461868999991566, 1.5403406999539584, 1.714323200052604, 1.4628198998980224, 1.4913926001172513, 2.347047300077975, 1.5461403999943286, 1.6247972999699414, 1.1842421998735517, 2.7032431999687105, 2.2402800999116153, 1.4461171999573708, 1.2961797001771629, 1.3979313001036644, 1.834891599835828, 2.4959462000988424, 1.7178515000268817, 3.3563273998443037, 2.3093347002286464, 3.628484500106424, 1.9577023999299854, 1.445811100071296]","[3.0591049999929965, 3.1404864999931306, 3.186542100040242, 2.6908551999367774, 2.3480215000454336, 3.441647599916905, 2.794595600105822, 1.8635587999597192, 5.132231799885631, 2.9737895999569446, 2.5618789999280125, 2.566607099957764, 2.1802141999360174, 2.6793192999903113, 2.29738079989329, 2.0087345000356436, 2.5118745998479426, 3.2382010999135673, 1.8451555001083761, 2.0754669001325965, 2.289120400091633, 1.7074963999912143, 2.021704899845645, 1.7170013000722975, 1.8571223001927137, 1.6405888001900166, 3.334452000213787, 1.9801407000049949, 1.5376337999477983, 1.6477794998791069, 2.070011999923736, 1.519944699946791, 1.3893156000413, 1.364441400161013, 2.5154001000337303, 1.7698297000024468, 1.2685237999539822, 1.5461949000600725, 1.5403489000163972, 1.7143324001226574, 1.4628278000745922, 1.4913991000503302, 2.347053600009531, 1.546148099936545, 1.624806100036949, 1.184249100042507, 2.703251900151372, 2.24029009998776, 1.4461255001369864, 1.296187800122425, 1.3979350000154227, 1.8348999000154436, 2.4959544001612812, 1.7178598998580128, 3.3563355000223964, 2.3093415000475943, 3.6284900000318885, 1.957711199996993, 1.445821600034833]",035672,001,2023-10-27_11h38.35.520,Intentional Binding Task,2022.1.4,59.996136331151284,
0.1,1000,exp,4,11,59,9,271.3766276000533,272.37659669993445,272.3593411000911,None,space,0.2800315001513809,272.3593411000911,None,272.7420152299572,None,273.0595551999286,None,400,273.0595551999286,None,273.0595551999286,None,60,"[3.059096399927512, 3.140477899927646, 3.186534399865195, 2.690847200108692, 2.348012699978426, 3.441637699957937, 2.794587800046429, 1.863550700014457, 5.132225199835375, 2.9737808001227677, 2.561872099991888, 2.5665995001327246, 2.1802060999907553, 2.6793126000557095, 2.2973766999784857, 2.0087262000888586, 2.5118650998920202, 3.2381932998541743, 1.8451487999409437, 2.07545780017972, 2.2891124999150634, 1.7074915000703186, 2.0216967000160366, 1.7169932001270354, 1.8571113999933004, 1.6405806001275778, 3.3344433000311255, 1.9801331998314708, 1.5376269000116736, 1.647773299831897, 2.070005400106311, 1.5199335999786854, 1.3893081001006067, 1.36443360010162, 2.51539249997586, 1.7698188999202102, 1.2684984998777509, 1.5461868999991566, 1.5403406999539584, 1.714323200052604, 1.4628198998980224, 1.4913926001172513, 2.347047300077975, 1.5461403999943286, 1.6247972999699414, 1.1842421998735517, 2.7032431999687105, 2.2402800999116153, 1.4461171999573708, 1.2961797001771629, 1.3979313001036644, 1.834891599835828, 2.4959462000988424, 1.7178515000268817, 3.3563273998443037, 2.3093347002286464, 3.628484500106424, 1.9577023999299854, 1.445811100071296, 1.7080073000397533]","[3.0591049999929965, 3.1404864999931306, 3.186542100040242, 2.6908551999367774, 2.3480215000454336, 3.441647599916905, 2.794595600105822, 1.8635587999597192, 5.132231799885631, 2.9737895999569446, 2.5618789999280125, 2.566607099957764, 2.1802141999360174, 2.6793192999903113, 2.29738079989329, 2.0087345000356436, 2.5118745998479426, 3.2382010999135673, 1.8451555001083761, 2.0754669001325965, 2.289120400091633, 1.7074963999912143, 2.021704899845645, 1.7170013000722975, 1.8571223001927137, 1.6405888001900166, 3.334452000213787, 1.9801407000049949, 1.5376337999477983, 1.6477794998791069, 2.070011999923736, 1.519944699946791, 1.3893156000413, 1.364441400161013, 2.5154001000337303, 1.7698297000024468, 1.2685237999539822, 1.5461949000600725, 1.5403489000163972, 1.7143324001226574, 1.4628278000745922, 1.4913991000503302, 2.347053600009531, 1.546148099936545, 1.624806100036949, 1.184249100042507, 2.703251900151372, 2.24029009998776, 1.4461255001369864, 1.296187800122425, 1.3979350000154227, 1.8348999000154436, 2.4959544001612812, 1.7178598998580128, 3.3563355000223964, 2.3093415000475943, 3.6284900000318885, 1.957711199996993, 1.445821600034833, 1.708013700088486]",035672,001,2023-10-27_11h38.35.520,Intentional Binding Task,2022.1.4,59.996136331151284,
0.4,1000,exp,5,0,60,10,274.7739500000607,275.7904777000658,275.75620849989355,None,space,0.5536013001110405,275.75620849989355,None,276.7220517301001,None,277.0533910000231,None,700,277.0533910000231,None,277.0533910000231,None,61,"[3.059096399927512, 3.140477899927646, 3.186534399865195, 2.690847200108692, 2.348012699978426, 3.441637699957937, 2.794587800046429, 1.863550700014457, 5.132225199835375, 2.9737808001227677, 2.561872099991888, 2.5665995001327246, 2.1802060999907553, 2.6793126000557095, 2.2973766999784857, 2.0087262000888586, 2.5118650998920202, 3.2381932998541743, 1.8451487999409437, 2.07545780017972, 2.2891124999150634, 1.7074915000703186, 2.0216967000160366, 1.7169932001270354, 1.8571113999933004, 1.6405806001275778, 3.3344433000311255, 1.9801331998314708, 1.5376269000116736, 1.647773299831897, 2.070005400106311, 1.5199335999786854, 1.3893081001006067, 1.36443360010162, 2.51539249997586, 1.7698188999202102, 1.2684984998777509, 1.5461868999991566, 1.5403406999539584, 1.714323200052604, 1.4628198998980224, 1.4913926001172513, 2.347047300077975, 1.5461403999943286, 1.6247972999699414, 1.1842421998735517, 2.7032431999687105, 2.2402800999116153, 1.4461171999573708, 1.2961797001771629, 1.3979313001036644, 1.834891599835828, 2.4959462000988424, 1.7178515000268817, 3.3563273998443037, 2.3093347002286464, 3.628484500106424, 1.9577023999299854, 1.445811100071296, 1.7080073000397533, 1.4579499000683427]","[3.0591049999929965, 3.1404864999931306, 3.186542100040242, 2.6908551999367774, 2.3480215000454336, 3.441647599916905, 2.794595600105822, 1.8635587999597192, 5.132231799885631, 2.9737895999569446, 2.5618789999280125, 2.566607099957764, 2.1802141999360174, 2.6793192999903113, 2.29738079989329, 2.0087345000356436, 2.5118745998479426, 3.2382010999135673, 1.8451555001083761, 2.0754669001325965, 2.289120400091633, 1.7074963999912143, 2.021704899845645, 1.7170013000722975, 1.8571223001927137, 1.6405888001900166, 3.334452000213787, 1.9801407000049949, 1.5376337999477983, 1.6477794998791069, 2.070011999923736, 1.519944699946791, 1.3893156000413, 1.364441400161013, 2.5154001000337303, 1.7698297000024468, 1.2685237999539822, 1.5461949000600725, 1.5403489000163972, 1.7143324001226574, 1.4628278000745922, 1.4913991000503302, 2.347053600009531, 1.546148099936545, 1.624806100036949, 1.184249100042507, 2.703251900151372, 2.24029009998776, 1.4461255001369864, 1.296187800122425, 1.3979350000154227, 1.8348999000154436, 2.4959544001612812, 1.7178598998580128, 3.3563355000223964, 2.3093415000475943, 3.6284900000318885, 1.957711199996993, 1.445821600034833, 1.708013700088486, 1.4579559001140296]",035672,001,2023-10-27_11h38.35.520,Intentional Binding Task,2022.1.4,59.996136331151284,
0.7,400,unexp,5,1,61,2,278.5033066000324,279.5189986000769,279.48567550000735,None,space,0.31992270005866885,279.48567550000735,None,280.51797902998516,None,280.8247861000709,None,400,280.8247861000709,None,280.8247861000709,None,62,"[3.059096399927512, 3.140477899927646, 3.186534399865195, 2.690847200108692, 2.348012699978426, 3.441637699957937, 2.794587800046429, 1.863550700014457, 5.132225199835375, 2.9737808001227677, 2.561872099991888, 2.5665995001327246, 2.1802060999907553, 2.6793126000557095, 2.2973766999784857, 2.0087262000888586, 2.5118650998920202, 3.2381932998541743, 1.8451487999409437, 2.07545780017972, 2.2891124999150634, 1.7074915000703186, 2.0216967000160366, 1.7169932001270354, 1.8571113999933004, 1.6405806001275778, 3.3344433000311255, 1.9801331998314708, 1.5376269000116736, 1.647773299831897, 2.070005400106311, 1.5199335999786854, 1.3893081001006067, 1.36443360010162, 2.51539249997586, 1.7698188999202102, 1.2684984998777509, 1.5461868999991566, 1.5403406999539584, 1.714323200052604, 1.4628198998980224, 1.4913926001172513, 2.347047300077975, 1.5461403999943286, 1.6247972999699414, 1.1842421998735517, 2.7032431999687105, 2.2402800999116153, 1.4461171999573708, 1.2961797001771629, 1.3979313001036644, 1.834891599835828, 2.4959462000988424, 1.7178515000268817, 3.3563273998443037, 2.3093347002286464, 3.628484500106424, 1.9577023999299854, 1.445811100071296, 1.7080073000397533, 1.4579499000683427, 1.5536076000425965]","[3.0591049999929965, 3.1404864999931306, 3.186542100040242, 2.6908551999367774, 2.3480215000454336, 3.441647599916905, 2.794595600105822, 1.8635587999597192, 5.132231799885631, 2.9737895999569446, 2.5618789999280125, 2.566607099957764, 2.1802141999360174, 2.6793192999903113, 2.29738079989329, 2.0087345000356436, 2.5118745998479426, 3.2382010999135673, 1.8451555001083761, 2.0754669001325965, 2.289120400091633, 1.7074963999912143, 2.021704899845645, 1.7170013000722975, 1.8571223001927137, 1.6405888001900166, 3.334452000213787, 1.9801407000049949, 1.5376337999477983, 1.6477794998791069, 2.070011999923736, 1.519944699946791, 1.3893156000413, 1.364441400161013, 2.5154001000337303, 1.7698297000024468, 1.2685237999539822, 1.5461949000600725, 1.5403489000163972, 1.7143324001226574, 1.4628278000745922, 1.4913991000503302, 2.347053600009531, 1.546148099936545, 1.624806100036949, 1.184249100042507, 2.703251900151372, 2.24029009998776, 1.4461255001369864, 1.296187800122425, 1.3979350000154227, 1.8348999000154436, 2.4959544001612812, 1.7178598998580128, 3.3563355000223964, 2.3093415000475943, 3.6284900000318885, 1.957711199996993, 1.445821600034833, 1.708013700088486, 1.4579559001140296, 1.5536144999787211]",035672,001,2023-10-27_11h38.35.520,Intentional Binding Task,2022.1.4,59.996136331151284,
0.4,1000,exp,5,2,62,4,282.38321650004946,283.38226719992235,283.3657422999386,None,space,0.14488310017623007,283.3657422999386,None,283.9148284301162,None,284.2467239999678,None,100,284.2467239999678,None,284.2467239999678,None,63,"[3.059096399927512, 3.140477899927646, 3.186534399865195, 2.690847200108692, 2.348012699978426, 3.441637699957937, 2.794587800046429, 1.863550700014457, 5.132225199835375, 2.9737808001227677, 2.561872099991888, 2.5665995001327246, 2.1802060999907553, 2.6793126000557095, 2.2973766999784857, 2.0087262000888586, 2.5118650998920202, 3.2381932998541743, 1.8451487999409437, 2.07545780017972, 2.2891124999150634, 1.7074915000703186, 2.0216967000160366, 1.7169932001270354, 1.8571113999933004, 1.6405806001275778, 3.3344433000311255, 1.9801331998314708, 1.5376269000116736, 1.647773299831897, 2.070005400106311, 1.5199335999786854, 1.3893081001006067, 1.36443360010162, 2.51539249997586, 1.7698188999202102, 1.2684984998777509, 1.5461868999991566, 1.5403406999539584, 1.714323200052604, 1.4628198998980224, 1.4913926001172513, 2.347047300077975, 1.5461403999943286, 1.6247972999699414, 1.1842421998735517, 2.7032431999687105, 2.2402800999116153, 1.4461171999573708, 1.2961797001771629, 1.3979313001036644, 1.834891599835828, 2.4959462000988424, 1.7178515000268817, 3.3563273998443037, 2.3093347002286464, 3.628484500106424, 1.9577023999299854, 1.445811100071296, 1.7080073000397533, 1.4579499000683427, 1.5536076000425965, 1.4150841999799013]","[3.0591049999929965, 3.1404864999931306, 3.186542100040242, 2.6908551999367774, 2.3480215000454336, 3.441647599916905, 2.794595600105822, 1.8635587999597192, 5.132231799885631, 2.9737895999569446, 2.5618789999280125, 2.566607099957764, 2.1802141999360174, 2.6793192999903113, 2.29738079989329, 2.0087345000356436, 2.5118745998479426, 3.2382010999135673, 1.8451555001083761, 2.0754669001325965, 2.289120400091633, 1.7074963999912143, 2.021704899845645, 1.7170013000722975, 1.8571223001927137, 1.6405888001900166, 3.334452000213787, 1.9801407000049949, 1.5376337999477983, 1.6477794998791069, 2.070011999923736, 1.519944699946791, 1.3893156000413, 1.364441400161013, 2.5154001000337303, 1.7698297000024468, 1.2685237999539822, 1.5461949000600725, 1.5403489000163972, 1.7143324001226574, 1.4628278000745922, 1.4913991000503302, 2.347053600009531, 1.546148099936545, 1.624806100036949, 1.184249100042507, 2.703251900151372, 2.24029009998776, 1.4461255001369864, 1.296187800122425, 1.3979350000154227, 1.8348999000154436, 2.4959544001612812, 1.7178598998580128, 3.3563355000223964, 2.3093415000475943, 3.6284900000318885, 1.957711199996993, 1.445821600034833, 1.708013700088486, 1.4579559001140296, 1.5536144999787211, 1.4151188000105321]",035672,001,2023-10-27_11h38.35.520,Intentional Binding Task,2022.1.4,59.996136331151284,
